"subject","version","rt1","key1","Action1","rt2","key2","Action2","Re","common","S2","score","practice","reverse_mapping_1","reverse_mapping_2","timeouts","vals","trial_index","time_elapsed","stamp","rews1a1","rews1a2","rews2a1","rews2a2"
"A1IXH2QLUU5BKZ","dez_1b_fix_v3_pilot2","5783","74","2","3716","74","2","1","1","3","1","1","0","0","0","0,5,2,1,0,0","0","0","2017-08-17 14:23:05","0","0","0","0"
"A1IXH2QLUU5BKZ","dez_1b_fix_v3_pilot2","1040","74","2","1453","70","1","2","1","3","3","1","0","0","0","1,4,2,1,1,1","1","0","2017-08-17 14:23:12","0","0","0","0"
"A1IXH2QLUU5BKZ","dez_1b_fix_v3_pilot2","961","70","1","2192","74","2","3","1","2","6","1","0","0","0","2,3,4,0,-1,-1","2","0","2017-08-17 14:23:20","0","0","0","0"
"A1IXH2QLUU5BKZ","dez_1b_fix_v3_pilot2","892","70","1","639","70","1","1","1","2","7","1","0","0","0","1,-1,3,1,0,0","3","0","2017-08-17 14:23:26","0","0","0","0"
"A1IXH2QLUU5BKZ","dez_1b_fix_v3_pilot2","1089","70","1","471","74","2","-2","1","2","5","1","0","0","0","4,-2,4,0,2,2","4","0","2017-08-17 14:23:32","0","0","0","0"
"A1IXH2QLUU5BKZ","dez_1b_fix_v3_pilot2","241","70","1","481","70","1","1","1","2","6","1","0","0","0","1,-3,3,0,-1,-1","5","0","2017-08-17 14:23:38","0","0","0","0"
"A1IXH2QLUU5BKZ","dez_1b_fix_v3_pilot2","475","74","2","712","74","2","2","1","3","8","1","0","0","0","5,-3,5,2,-4,-4","6","0","2017-08-17 14:23:44","0","0","0","0"
"A1IXH2QLUU5BKZ","dez_1b_fix_v3_pilot2","846","70","1","590","70","1","4","1","2","12","1","0","0","0","4,-3,2,2,-3,-3","7","0","2017-08-17 14:23:50","0","0","0","0"
"A1IXH2QLUU5BKZ","dez_1b_fix_v3_pilot2","476","74","2","836","74","2","3","1","3","15","1","0","0","0","2,-2,4,3,-3,-3","8","0","2017-08-17 14:23:56","0","0","0","0"
"A1IXH2QLUU5BKZ","dez_1b_fix_v3_pilot2","255","70","1","419","70","1","-1","1","2","14","1","0","0","0","-1,-4,2,1,-3,-3","9","0","2017-08-17 14:24:01","0","0","0","0"
"A1IXH2QLUU5BKZ","dez_1b_fix_v3_pilot2","208","74","2","1634","74","2","0","0","4","14","1","0","0","0","0,-3,3,3,0,0","10","0","2017-08-17 14:24:08","0","0","0","0"
"A1IXH2QLUU5BKZ","dez_1b_fix_v3_pilot2","414","74","2","613","74","2","5","1","3","19","1","0","0","0","1,-5,5,5,0,0","11","0","2017-08-17 14:24:14","0","0","0","0"
"A1IXH2QLUU5BKZ","dez_1b_fix_v3_pilot2","395","74","2","316","74","2","4","1","3","23","1","0","0","0","1,-4,3,4,-1,-1","12","0","2017-08-17 14:24:19","0","0","0","0"
"A1IXH2QLUU5BKZ","dez_1b_fix_v3_pilot2","268","74","2","372","74","2","4","1","3","27","1","0","0","0","3,-4,4,4,0,0","13","0","2017-08-17 14:24:24","0","0","0","0"
"A1IXH2QLUU5BKZ","dez_1b_fix_v3_pilot2","441","74","2","435","74","2","4","1","3","31","1","0","0","0","0,-4,5,4,-4,-4","14","0","2017-08-17 14:24:30","0","0","0","0"
"A1IXH2QLUU5BKZ","dez_1b_fix_v3_pilot2","567","74","2","348","74","2","-4","0","4","27","1","0","0","0","0,-4,2,3,-4,-4","15","0","2017-08-17 14:24:36","0","0","0","0"
"A1IXH2QLUU5BKZ","dez_1b_fix_v3_pilot2","391","74","2","425","74","2","3","1","3","30","1","0","0","0","0,-4,3,3,-1,-1","16","0","2017-08-17 14:24:41","0","0","0","0"
"A1IXH2QLUU5BKZ","dez_1b_fix_v3_pilot2","25981","70","1","963","70","1","-2","1","2","28","1","0","0","0","-2,-2,4,0,-3,-3","17","0","2017-08-17 14:25:13","0","0","0","0"
"A1IXH2QLUU5BKZ","dez_1b_fix_v3_pilot2","313","74","2","399","74","2","1","1","3","29","1","0","0","0","-4,-1,4,1,-1,-1","18","0","2017-08-17 14:25:18","0","0","0","0"
"A1IXH2QLUU5BKZ","dez_1b_fix_v3_pilot2","572","74","2","329","74","2","-1","1","3","28","1","0","0","0","-4,0,2,-1,-4,-4","19","0","2017-08-17 14:25:24","0","0","0","0"
"A1IXH2QLUU5BKZ","dez_1b_fix_v3_pilot2","333","74","2","1788","70","1","2","1","3","30","1","0","0","0","-3,-2,2,1,-5,-5","20","0","2017-08-17 14:25:31","0","0","0","0"
"A1IXH2QLUU5BKZ","dez_1b_fix_v3_pilot2","378","74","2","343","70","1","-3","0","4","27","1","0","0","0","-3,-3,1,2,-3,-3","21","0","2017-08-17 14:25:36","0","0","0","0"
"A1IXH2QLUU5BKZ","dez_1b_fix_v3_pilot2","305","74","2","402","70","1","3","1","3","30","1","0","0","0","-2,0,3,1,-2,-2","22","0","2017-08-17 14:25:41","0","0","0","0"
"A1IXH2QLUU5BKZ","dez_1b_fix_v3_pilot2","272","74","2","723","70","1","-5","0","4","25","1","0","0","0","-2,0,4,4,-5,-5","23","0","2017-08-17 14:25:47","0","0","0","0"
"A1IXH2QLUU5BKZ","dez_1b_fix_v3_pilot2","350","70","1","998","70","1","-5","0","4","20","1","0","0","0","-1,2,5,4,-5,-5","24","0","2017-08-17 14:25:53","0","0","0","0"
"A1IXH2QLUU5BKZ","dez_1b_fix_v3_pilot2","532","74","2","614","74","2","4","1","3","24","1","0","0","0","-2,1,4,4,-4,-4","25","0","2017-08-17 14:25:59","0","0","0","0"
"A1IXH2QLUU5BKZ","dez_1b_fix_v3_pilot2","504","74","2","321","70","1","-4","0","4","20","1","0","0","0","-2,3,1,3,-4,-4","26","0","2017-08-17 14:26:05","0","0","0","0"
"A1IXH2QLUU5BKZ","dez_1b_fix_v3_pilot2","270","70","1","737","70","1","-4","1","2","16","1","0","0","0","-4,3,5,1,-1,-1","27","0","2017-08-17 14:26:10","0","0","0","0"
"A1IXH2QLUU5BKZ","dez_1b_fix_v3_pilot2","320","74","2","696","74","2","2","1","3","18","1","0","0","0","-4,2,5,2,-2,-2","28","0","2017-08-17 14:26:16","0","0","0","0"
"A1IXH2QLUU5BKZ","dez_1b_fix_v3_pilot2","440","74","2","873","74","2","-3","0","4","15","1","0","0","0","-5,5,4,1,-3,-3","29","0","2017-08-17 14:26:22","0","0","0","0"
"A1IXH2QLUU5BKZ","dez_1b_fix_v3_pilot2","395","74","2","529","74","2","2","1","3","17","1","0","0","0","-3,3,4,2,-3,-3","30","0","2017-08-17 14:26:28","0","0","0","0"
"A1IXH2QLUU5BKZ","dez_1b_fix_v3_pilot2","892","74","2","779","74","2","-2","1","3","15","1","0","0","0","-4,4,3,-2,-2,-2","31","0","2017-08-17 14:26:34","0","0","0","0"
"A1IXH2QLUU5BKZ","dez_1b_fix_v3_pilot2","568","70","1","1663","74","2","4","1","2","19","1","0","0","0","-4,4,0,-2,-2,-2","32","0","2017-08-17 14:26:41","0","0","0","0"
"A1IXH2QLUU5BKZ","dez_1b_fix_v3_pilot2","484","70","1","460","74","2","5","1","2","24","1","0","0","0","-4,5,-1,-4,-3,-3","33","0","2017-08-17 14:26:47","0","0","0","0"
"A1IXH2QLUU5BKZ","dez_1b_fix_v3_pilot2","313","70","1","460","74","2","2","1","2","26","1","0","0","0","-4,2,-1,-4,1,1","34","0","2017-08-17 14:26:52","0","0","0","0"
"A1IXH2QLUU5BKZ","dez_1b_fix_v3_pilot2","403","70","1","461","70","1","-5","1","2","21","1","0","0","0","-5,4,0,-4,-1,-1","35","0","2017-08-17 14:26:58","0","0","0","0"
"A1IXH2QLUU5BKZ","dez_1b_fix_v3_pilot2","344","74","2","324","74","2","-4","1","3","17","1","0","0","0","-4,4,-2,-4,-3,-3","36","0","2017-08-17 14:27:03","0","0","0","0"
"A1IXH2QLUU5BKZ","dez_1b_fix_v3_pilot2","276","74","2","509","70","1","-1","1","3","16","1","0","0","0","-3,3,-1,-4,-5,-5","37","0","2017-08-17 14:27:09","0","0","0","0"
"A1IXH2QLUU5BKZ","dez_1b_fix_v3_pilot2","294","74","2","271","74","2","-5","1","3","11","1","0","0","0","-4,2,-3,-5,-4,-4","38","0","2017-08-17 14:27:14","0","0","0","0"
"A1IXH2QLUU5BKZ","dez_1b_fix_v3_pilot2","50","70","1","230","70","1","-5","1","2","6","1","0","0","0","-5,5,-4,-2,-4,-4","39","0","2017-08-17 14:27:19","0","0","0","0"
"A1IXH2QLUU5BKZ","dez_1b_fix_v3_pilot2","943","74","2","463","74","2","-1","1","3","19","0","0","0","0","1,3,-3,-1,-2,-2","0","0","2017-08-17 14:28:45","0","0","0","0"
"A1IXH2QLUU5BKZ","dez_1b_fix_v3_pilot2","161","74","2","63","74","2","1","1","3","20","0","0","0","0","2,4,-3,1,2,2","1","0","2017-08-17 14:28:49","0","0","0","0"
"A1IXH2QLUU5BKZ","dez_1b_fix_v3_pilot2","161","74","2","349","74","2","-1","1","3","19","0","0","0","0","-1,4,-3,-1,2,2","2","0","2017-08-17 14:28:54","0","0","0","0"
"A1IXH2QLUU5BKZ","dez_1b_fix_v3_pilot2","117","74","2","125","74","2","0","1","3","19","0","0","0","0","0,4,-2,0,1,1","3","0","2017-08-17 14:28:58","0","0","0","0"
"A1IXH2QLUU5BKZ","dez_1b_fix_v3_pilot2","335","74","2","250","70","1","-1","1","3","18","0","0","0","0","0,5,-1,0,1,1","4","0","2017-08-17 14:29:02","0","0","0","0"
"A1IXH2QLUU5BKZ","dez_1b_fix_v3_pilot2","248","70","1","348","70","1","2","1","2","20","0","0","0","0","2,3,0,-2,3,3","5","0","2017-08-17 14:29:07","0","0","0","0"
"A1IXH2QLUU5BKZ","dez_1b_fix_v3_pilot2","249","70","1","469","74","2","0","1","2","20","0","0","0","0","4,0,0,-1,4,4","6","0","2017-08-17 14:29:11","0","0","0","0"
"A1IXH2QLUU5BKZ","dez_1b_fix_v3_pilot2","235","70","1","78","70","1","3","1","2","23","0","0","0","0","3,-2,1,-4,5,5","7","0","2017-08-17 14:29:17","0","0","0","0"
"A1IXH2QLUU5BKZ","dez_1b_fix_v3_pilot2","193","70","1","210","70","1","3","0","4","26","0","0","0","0","5,-3,-1,-4,3,3","8","0","2017-08-17 14:29:20","0","0","0","0"
"A1IXH2QLUU5BKZ","dez_1b_fix_v3_pilot2","412","74","2","198","70","1","-2","1","3","24","0","0","0","0","3,-4,-2,-4,-1,-1","9","0","2017-08-17 14:29:24","0","0","0","0"
"A1IXH2QLUU5BKZ","dez_1b_fix_v3_pilot2","136","74","2","285","74","2","-2","1","3","22","0","0","0","0","2,-4,-2,-2,-4,-4","10","0","2017-08-17 14:29:28","0","0","0","0"
"A1IXH2QLUU5BKZ","dez_1b_fix_v3_pilot2","131","70","1","136","70","1","1","1","2","23","0","0","0","0","1,-2,-4,2,-5,-5","11","0","2017-08-17 14:29:32","0","0","0","0"
"A1IXH2QLUU5BKZ","dez_1b_fix_v3_pilot2","23","70","1","255","74","2","-2","1","2","21","0","0","0","0","-1,-2,-5,-1,-5,-5","12","0","2017-08-17 14:29:37","0","0","0","0"
"A1IXH2QLUU5BKZ","dez_1b_fix_v3_pilot2","146","70","1","91","70","1","2","1","2","23","0","0","0","0","2,0,-5,-1,-4,-4","13","0","2017-08-17 14:29:41","0","0","0","0"
"A1IXH2QLUU5BKZ","dez_1b_fix_v3_pilot2","487","74","2","1358","74","2","-2","1","3","21","0","0","0","1","4,-2,-3,-2,-3,-3","14","0","2017-08-17 14:29:50","0","0","0","0"
"A1IXH2QLUU5BKZ","dez_1b_fix_v3_pilot2","264","74","2","716","70","1","0","1","3","21","0","0","0","0","5,-2,0,-3,-3,-3","15","0","2017-08-17 14:29:55","0","0","0","0"
"A1IXH2QLUU5BKZ","dez_1b_fix_v3_pilot2","564","70","1","1028","70","1","-5","0","4","16","0","0","0","0","4,-4,-1,-4,-5,-5","16","0","2017-08-17 14:30:00","0","0","0","0"
"A1IXH2QLUU5BKZ","dez_1b_fix_v3_pilot2","118","70","1","934","74","2","-4","0","4","12","0","0","0","0","4,-3,-2,-5,-4,-4","17","0","2017-08-17 14:30:05","0","0","0","0"
"A1IXH2QLUU5BKZ","dez_1b_fix_v3_pilot2","2","70","1","928","70","1","-4","0","4","8","0","0","0","0","1,-3,1,-1,-4,-4","18","0","2017-08-17 14:30:10","0","0","0","0"
"A1IXH2QLUU5BKZ","dez_1b_fix_v3_pilot2","103","70","1","846","70","1","3","1","2","11","0","0","0","0","3,-5,0,-1,-5,-5","19","0","2017-08-17 14:30:15","0","0","0","0"
"A1IXH2QLUU5BKZ","dez_1b_fix_v3_pilot2","101","70","1","233","70","1","5","1","2","16","0","0","0","0","5,-3,2,-3,-4,-4","20","0","2017-08-17 14:30:19","0","0","0","0"
"A1IXH2QLUU5BKZ","dez_1b_fix_v3_pilot2","231","70","1","171","70","1","4","1","2","20","0","0","0","0","4,-3,2,-2,-2,-2","21","0","2017-08-17 14:30:23","0","0","0","0"
"A1IXH2QLUU5BKZ","dez_1b_fix_v3_pilot2","1","70","1","72","70","1","0","1","2","20","0","0","0","0","0,-2,3,-4,1,1","22","0","2017-08-17 14:30:27","0","0","0","0"
"A1IXH2QLUU5BKZ","dez_1b_fix_v3_pilot2","261","74","2","447","74","2","-2","1","3","18","0","0","0","0","1,-4,1,-2,-1,-1","23","0","2017-08-17 14:30:32","0","0","0","0"
"A1IXH2QLUU5BKZ","dez_1b_fix_v3_pilot2","149","70","1","113","70","1","2","1","2","20","0","0","0","0","2,-5,1,-3,-4,-4","24","0","2017-08-17 14:30:36","0","0","0","0"
"A1IXH2QLUU5BKZ","dez_1b_fix_v3_pilot2","48","70","1","153","70","1","1","1","2","21","0","0","0","0","1,-2,3,-2,-2,-2","25","0","2017-08-17 14:30:40","0","0","0","0"
"A1IXH2QLUU5BKZ","dez_1b_fix_v3_pilot2","238","70","1","153","70","1","2","1","2","23","0","0","0","0","2,0,2,-4,-3,-3","26","0","2017-08-17 14:30:44","0","0","0","0"
"A1IXH2QLUU5BKZ","dez_1b_fix_v3_pilot2","94","70","1","173","70","1","1","1","2","24","0","0","0","0","1,-3,2,-5,-2,-2","27","0","2017-08-17 14:30:48","0","0","0","0"
"A1IXH2QLUU5BKZ","dez_1b_fix_v3_pilot2","34","70","1","248","70","1","2","1","2","26","0","0","0","0","2,-3,1,-4,-2,-2","28","0","2017-08-17 14:30:52","0","0","0","0"
"A1IXH2QLUU5BKZ","dez_1b_fix_v3_pilot2","324","70","1","871","74","2","-3","0","4","23","0","0","0","0","1,-4,0,-1,-3,-3","29","0","2017-08-17 14:30:58","0","0","0","0"
"A1IXH2QLUU5BKZ","dez_1b_fix_v3_pilot2","319","70","1","302","74","2","-4","1","2","19","0","0","0","0","5,-4,1,-3,-3,-3","30","0","2017-08-17 14:31:02","0","0","0","0"
"A1IXH2QLUU5BKZ","dez_1b_fix_v3_pilot2","158","70","1","91","70","1","5","1","2","24","0","0","0","0","5,-4,1,1,-3,-3","31","0","2017-08-17 14:31:06","0","0","0","0"
"A1IXH2QLUU5BKZ","dez_1b_fix_v3_pilot2","519","70","1","269","70","1","5","1","2","29","0","0","0","0","5,-3,1,4,1,1","32","0","2017-08-17 14:31:11","0","0","0","0"
"A1IXH2QLUU5BKZ","dez_1b_fix_v3_pilot2","167","70","1","76","70","1","-1","0","4","28","0","0","0","0","5,-1,5,4,-1,-1","33","0","2017-08-17 14:31:15","0","0","0","0"
"A1IXH2QLUU5BKZ","dez_1b_fix_v3_pilot2","79","70","1","147","70","1","-4","0","4","24","0","0","0","0","2,-2,3,3,-4,-4","34","0","2017-08-17 14:31:19","0","0","0","0"
"A1IXH2QLUU5BKZ","dez_1b_fix_v3_pilot2","333","70","1","97","70","1","-3","0","4","21","0","0","0","0","1,-2,2,1,-3,-3","35","0","2017-08-17 14:31:23","0","0","0","0"
"A1IXH2QLUU5BKZ","dez_1b_fix_v3_pilot2","282","70","1","186","70","1","1","1","2","22","0","0","0","0","1,-3,1,-2,-3,-3","36","0","2017-08-17 14:31:28","0","0","0","0"
"A1IXH2QLUU5BKZ","dez_1b_fix_v3_pilot2","655","70","1","151","70","1","-1","1","2","21","0","0","0","0","-1,-1,-2,-3,-3,-3","37","0","2017-08-17 14:31:32","0","0","0","0"
"A1IXH2QLUU5BKZ","dez_1b_fix_v3_pilot2","253","70","1","512","70","1","-4","1","2","17","0","0","0","5","-4,-2,-3,-1,-3,-3","38","0","2017-08-17 14:31:57","0","0","0","0"
"A1IXH2QLUU5BKZ","dez_1b_fix_v3_pilot2","36","70","1","57","70","1","-2","1","2","15","0","0","0","0","-2,-2,-3,-2,-4,-4","39","0","2017-08-17 14:32:01","0","0","0","0"
"A1IXH2QLUU5BKZ","dez_1b_fix_v3_pilot2","131","74","2","311","74","2","-1","1","3","14","0","0","0","0","2,-3,0,-1,-5,-5","40","0","2017-08-17 14:32:05","0","0","0","0"
"A1IXH2QLUU5BKZ","dez_1b_fix_v3_pilot2","492","74","2","67","74","2","-3","1","3","11","0","0","0","0","3,-4,0,-3,-3,-3","41","0","2017-08-17 14:32:10","0","0","0","0"
"A1IXH2QLUU5BKZ","dez_1b_fix_v3_pilot2","12","74","2","293","70","1","-2","1","3","9","0","0","0","0","2,-4,-2,-4,-3,-3","42","0","2017-08-17 14:32:14","0","0","0","0"
"A1IXH2QLUU5BKZ","dez_1b_fix_v3_pilot2","296","70","1","116","70","1","3","1","2","12","0","0","0","0","3,-4,-1,-2,-3,-3","43","0","2017-08-17 14:32:18","0","0","0","0"
"A1IXH2QLUU5BKZ","dez_1b_fix_v3_pilot2","127","70","1","146","70","1","-4","0","4","8","0","0","0","0","1,-4,0,-2,-4,-4","44","0","2017-08-17 14:32:22","0","0","0","0"
"A1IXH2QLUU5BKZ","dez_1b_fix_v3_pilot2","42","70","1","74","70","1","0","1","2","8","0","0","0","0","0,-4,2,-1,-5,-5","45","0","2017-08-17 14:32:26","0","0","0","0"
"A1IXH2QLUU5BKZ","dez_1b_fix_v3_pilot2","125","70","1","22","70","1","4","1","2","12","0","0","0","0","4,-1,1,-1,-1,-1","46","0","2017-08-17 14:32:30","0","0","0","0"
"A1IXH2QLUU5BKZ","dez_1b_fix_v3_pilot2","2","70","1","79","70","1","-2","0","4","10","0","0","0","0","2,-2,-1,1,-2,-2","47","0","2017-08-17 14:32:34","0","0","0","0"
"A1IXH2QLUU5BKZ","dez_1b_fix_v3_pilot2","125","70","1","74","70","1","4","1","2","14","0","0","0","0","4,-2,-1,-2,-2,-2","48","0","2017-08-17 14:32:38","0","0","0","0"
"A1IXH2QLUU5BKZ","dez_1b_fix_v3_pilot2","38","70","1","45","70","1","-1","0","4","13","0","0","0","0","4,-1,-2,-2,-1,-1","49","0","2017-08-17 14:32:42","0","0","0","0"
"A1IXH2QLUU5BKZ","dez_1b_fix_v3_pilot2","75","70","1","116","70","1","4","1","2","17","0","0","0","0","4,2,-4,-3,-2,-2","50","0","2017-08-17 14:32:46","0","0","0","0"
"A1IXH2QLUU5BKZ","dez_1b_fix_v3_pilot2","68","70","1","86","70","1","-1","0","4","16","0","0","0","0","2,3,-4,-4,-1,-1","51","0","2017-08-17 14:32:50","0","0","0","0"
"A1IXH2QLUU5BKZ","dez_1b_fix_v3_pilot2","41","70","1","129","70","1","2","1","2","18","0","0","0","0","2,2,-3,-4,-2,-2","52","0","2017-08-17 14:32:54","0","0","0","0"
"A1IXH2QLUU5BKZ","dez_1b_fix_v3_pilot2","19","70","1","125","70","1","-3","0","4","15","0","0","0","0","2,4,-3,-4,-3,-3","53","0","2017-08-17 14:32:58","0","0","0","0"
"A1IXH2QLUU5BKZ","dez_1b_fix_v3_pilot2","100","70","1","45","70","1","2","1","2","17","0","0","0","0","2,4,-4,-3,-3,-3","54","0","2017-08-17 14:33:02","0","0","0","0"
"A1IXH2QLUU5BKZ","dez_1b_fix_v3_pilot2","50","70","1","71","70","1","-2","0","4","15","0","0","0","0","3,5,-4,-3,-2,-2","55","0","2017-08-17 14:33:06","0","0","0","0"
"A1IXH2QLUU5BKZ","dez_1b_fix_v3_pilot2","114","70","1","43","70","1","4","1","2","19","0","0","0","0","4,4,-4,-4,-3,-3","56","0","2017-08-17 14:33:10","0","0","0","0"
"A1IXH2QLUU5BKZ","dez_1b_fix_v3_pilot2","151","70","1","151","70","1","3","1","2","22","0","0","0","0","3,1,-4,-2,-2,-2","57","0","2017-08-17 14:33:15","0","0","0","0"
"AIK9IRPT4M848","dez_1b_fix_v3_pilot2","2297","70","1","1119","70","1","0","1","2","0","1","0","0","0","0,-1,2,2,1,1","0","0","2017-08-17 14:33:15","0","0","0","0"
"A1IXH2QLUU5BKZ","dez_1b_fix_v3_pilot2","13","70","1","156","70","1","2","1","2","24","0","0","0","0","2,0,-5,-4,-4,-4","58","0","2017-08-17 14:33:19","0","0","0","0"
"AIK9IRPT4M848","dez_1b_fix_v3_pilot2","1230","70","1","467","74","2","0","1","2","0","1","0","0","0","2,0,5,2,-2,-2","1","0","2017-08-17 14:33:21","0","0","0","0"
"A1IXH2QLUU5BKZ","dez_1b_fix_v3_pilot2","162","70","1","165","70","1","0","1","2","24","0","0","0","0","0,-1,-4,-5,-2,-2","59","0","2017-08-17 14:33:23","0","0","0","0"
"A1IXH2QLUU5BKZ","dez_1b_fix_v3_pilot2","77","70","1","125","70","1","2","1","2","26","0","0","0","0","2,-5,-4,-4,2,2","60","0","2017-08-17 14:33:27","0","0","0","0"
"AIK9IRPT4M848","dez_1b_fix_v3_pilot2","954","74","2","801","70","1","5","1","3","5","1","0","0","0","4,-2,5,0,0,0","2","0","2017-08-17 14:33:27","0","0","0","0"
"A1IXH2QLUU5BKZ","dez_1b_fix_v3_pilot2","21","70","1","84","70","1","3","0","4","29","0","0","0","0","3,-2,-4,-2,3,3","61","0","2017-08-17 14:33:31","0","0","0","0"
"AIK9IRPT4M848","dez_1b_fix_v3_pilot2","900","74","2","508","74","2","1","1","3","6","1","0","0","0","2,0,4,1,1,1","3","0","2017-08-17 14:33:34","0","0","0","0"
"A1IXH2QLUU5BKZ","dez_1b_fix_v3_pilot2","30","70","1","102","70","1","3","1","2","32","0","0","0","0","3,-3,-5,-2,4,4","62","0","2017-08-17 14:33:35","0","0","0","0"
"A1IXH2QLUU5BKZ","dez_1b_fix_v3_pilot2","87","70","1","9","70","1","2","1","2","34","0","0","0","0","2,-3,-1,-1,2,2","63","0","2017-08-17 14:33:39","0","0","0","0"
"AIK9IRPT4M848","dez_1b_fix_v3_pilot2","502","74","2","482","70","1","2","0","4","8","1","0","0","0","4,-3,4,1,2,2","4","0","2017-08-17 14:33:39","0","0","0","0"
"A1IXH2QLUU5BKZ","dez_1b_fix_v3_pilot2","180","70","1","132","70","1","3","1","2","37","0","0","0","0","3,-3,-1,-1,4,4","64","0","2017-08-17 14:33:43","0","0","0","0"
"AIK9IRPT4M848","dez_1b_fix_v3_pilot2","571","74","2","433","70","1","5","1","3","13","1","0","0","0","3,-4,5,3,2,2","5","0","2017-08-17 14:33:45","0","0","0","0"
"A1IXH2QLUU5BKZ","dez_1b_fix_v3_pilot2","141","70","1","111","70","1","5","1","2","42","0","0","0","0","5,-4,0,2,4,4","65","0","2017-08-17 14:33:47","0","0","0","0"
"AIK9IRPT4M848","dez_1b_fix_v3_pilot2","641","74","2","427","70","1","3","1","3","16","1","0","0","0","3,-4,3,2,3,3","6","0","2017-08-17 14:33:51","0","0","0","0"
"A1IXH2QLUU5BKZ","dez_1b_fix_v3_pilot2","102","70","1","76","70","1","4","1","2","46","0","0","0","1","4,-3,-1,1,4,4","66","0","2017-08-17 14:33:55","0","0","0","0"
"AIK9IRPT4M848","dez_1b_fix_v3_pilot2","597","74","2","946","74","2","5","0","4","21","1","0","0","0","2,-2,3,2,5,5","7","0","2017-08-17 14:33:57","0","0","0","0"
"A1IXH2QLUU5BKZ","dez_1b_fix_v3_pilot2","79","70","1","189","70","1","0","1","2","46","0","0","0","0","0,-4,-2,-1,2,2","67","0","2017-08-17 14:33:59","0","0","0","0"
"A1IXH2QLUU5BKZ","dez_1b_fix_v3_pilot2","224","70","1","161","70","1","1","1","2","47","0","0","0","0","1,-2,-2,1,1,1","68","0","2017-08-17 14:34:03","0","0","0","0"
"AIK9IRPT4M848","dez_1b_fix_v3_pilot2","603","74","2","671","74","2","1","1","3","22","1","0","0","0","2,-3,3,1,4,4","8","0","2017-08-17 14:34:03","0","0","0","0"
"A1IXH2QLUU5BKZ","dez_1b_fix_v3_pilot2","71","70","1","811","70","1","2","0","4","49","0","0","0","0","0,-5,0,-3,2,2","69","0","2017-08-17 14:34:08","0","0","0","0"
"AIK9IRPT4M848","dez_1b_fix_v3_pilot2","457","74","2","508","70","1","1","1","3","23","1","0","0","0","4,-1,1,3,3,3","9","0","2017-08-17 14:34:09","0","0","0","0"
"A1IXH2QLUU5BKZ","dez_1b_fix_v3_pilot2","141","70","1","744","70","1","4","0","4","53","0","0","0","0","-2,-5,-1,-3,4,4","70","0","2017-08-17 14:34:12","0","0","0","0"
"AIK9IRPT4M848","dez_1b_fix_v3_pilot2","430","70","1","1162","74","2","0","1","2","23","1","0","0","0","3,0,1,2,5,5","10","0","2017-08-17 14:34:15","0","0","0","0"
"AIK9IRPT4M848","dez_1b_fix_v3_pilot2","536","70","1","394","70","1","3","1","2","26","1","0","0","0","3,-5,3,2,3,3","11","0","2017-08-17 14:34:21","0","0","0","0"
"A1IXH2QLUU5BKZ","dez_1b_fix_v3_pilot2","36","70","1","381","74","2","-2","1","2","51","0","0","0","1","0,-2,-2,0,4,4","71","0","2017-08-17 14:34:21","0","0","0","0"
"A1IXH2QLUU5BKZ","dez_1b_fix_v3_pilot2","161","70","1","126","70","1","5","0","4","56","0","0","0","0","-2,-3,-2,-1,5,5","72","0","2017-08-17 14:34:25","0","0","0","0"
"AIK9IRPT4M848","dez_1b_fix_v3_pilot2","475","70","1","374","70","1","5","1","2","31","1","0","0","0","5,-5,1,4,2,2","12","0","2017-08-17 14:34:26","0","0","0","0"
"A1IXH2QLUU5BKZ","dez_1b_fix_v3_pilot2","491","74","2","262","74","2","0","1","3","56","0","0","0","0","-3,-5,0,0,4,4","73","0","2017-08-17 14:34:30","0","0","0","0"
"AIK9IRPT4M848","dez_1b_fix_v3_pilot2","390","70","1","300","70","1","3","1","2","34","1","0","0","0","3,-4,-1,3,2,2","13","0","2017-08-17 14:34:32","0","0","0","0"
"A1IXH2QLUU5BKZ","dez_1b_fix_v3_pilot2","219","74","2","108","74","2","1","1","3","57","0","0","0","0","-4,-4,-1,1,3,3","74","0","2017-08-17 14:34:34","0","0","0","0"
"A1IXH2QLUU5BKZ","dez_1b_fix_v3_pilot2","72","74","2","177","70","1","-2","1","3","55","0","0","0","0","-2,-4,-2,1,4,4","75","0","2017-08-17 14:34:38","0","0","0","0"
"AIK9IRPT4M848","dez_1b_fix_v3_pilot2","1781","74","2","419","70","1","1","0","4","35","1","0","0","0","3,-3,-2,4,1,1","14","0","2017-08-17 14:34:39","0","0","0","0"
"A1IXH2QLUU5BKZ","dez_1b_fix_v3_pilot2","141","74","2","74","74","2","3","1","3","58","0","0","0","0","-3,-2,-2,3,4,4","76","0","2017-08-17 14:34:42","0","0","0","0"
"AIK9IRPT4M848","dez_1b_fix_v3_pilot2","513","74","2","331","70","1","3","0","4","38","1","0","0","0","3,-1,-1,2,3,3","15","0","2017-08-17 14:34:44","0","0","0","0"
"A1IXH2QLUU5BKZ","dez_1b_fix_v3_pilot2","29","74","2","125","74","2","4","0","4","62","0","0","0","0","-5,-3,-4,2,4,4","77","0","2017-08-17 14:34:46","0","0","0","0"
"AIK9IRPT4M848","dez_1b_fix_v3_pilot2","564","74","2","519","70","1","1","1","3","39","1","0","0","0","3,0,1,3,3,3","16","0","2017-08-17 14:34:50","0","0","0","0"
"A1IXH2QLUU5BKZ","dez_1b_fix_v3_pilot2","63","74","2","118","74","2","4","1","3","66","0","0","0","0","-5,-4,-3,4,5,5","78","0","2017-08-17 14:34:50","0","0","0","0"
"A1IXH2QLUU5BKZ","dez_1b_fix_v3_pilot2","178","74","2","134","74","2","3","0","4","69","0","0","0","0","-5,-3,-4,3,3,3","79","0","2017-08-17 14:34:54","0","0","0","0"
"AIK9IRPT4M848","dez_1b_fix_v3_pilot2","832","74","2","479","74","2","5","1","3","44","1","0","0","0","0,1,5,5,4,4","17","0","2017-08-17 14:34:56","0","0","0","0"
"A1IXH2QLUU5BKZ","dez_1b_fix_v3_pilot2","96","74","2","143","74","2","1","1","3","70","0","0","0","0","-2,-4,-2,1,4,4","80","0","2017-08-17 14:34:58","0","0","0","0"
"AIK9IRPT4M848","dez_1b_fix_v3_pilot2","492","74","2","416","74","2","5","1","3","49","1","0","0","0","2,2,4,5,3,3","18","0","2017-08-17 14:35:02","0","0","0","0"
"A1IXH2QLUU5BKZ","dez_1b_fix_v3_pilot2","104","74","2","121","74","2","1","1","3","71","0","0","0","0","-2,-5,-4,1,2,2","81","0","2017-08-17 14:35:02","0","0","0","0"
"A1IXH2QLUU5BKZ","dez_1b_fix_v3_pilot2","132","70","1","66","70","1","-3","1","2","68","0","0","0","0","-3,-4,-5,3,1,1","82","0","2017-08-17 14:35:06","0","0","0","0"
"AIK9IRPT4M848","dez_1b_fix_v3_pilot2","392","74","2","528","74","2","1","1","3","50","1","0","0","0","0,1,3,1,4,4","19","0","2017-08-17 14:35:07","0","0","0","0"
"A1IXH2QLUU5BKZ","dez_1b_fix_v3_pilot2","75","74","2","70","74","2","4","1","3","72","0","0","0","0","-5,-3,-5,4,2,2","83","0","2017-08-17 14:35:10","0","0","0","0"
"AIK9IRPT4M848","dez_1b_fix_v3_pilot2","587","74","2","1020","70","1","3","0","4","53","1","0","0","0","1,-1,4,2,3,3","20","0","2017-08-17 14:35:14","0","0","0","0"
"A1IXH2QLUU5BKZ","dez_1b_fix_v3_pilot2","219","74","2","123","74","2","5","1","3","77","0","0","0","0","-5,-5,-3,5,3,3","84","0","2017-08-17 14:35:15","0","0","0","0"
"A1IXH2QLUU5BKZ","dez_1b_fix_v3_pilot2","150","74","2","122","74","2","5","1","3","82","0","0","0","0","-5,-3,-2,5,3,3","85","0","2017-08-17 14:35:19","0","0","0","0"
"AIK9IRPT4M848","dez_1b_fix_v3_pilot2","860","74","2","281","74","2","1","1","3","54","1","0","0","0","0,1,3,1,4,4","21","0","2017-08-17 14:35:19","0","0","0","0"
"A1IXH2QLUU5BKZ","dez_1b_fix_v3_pilot2","170","74","2","164","74","2","1","0","4","83","0","0","0","0","-4,-2,-1,4,1,1","86","0","2017-08-17 14:35:23","0","0","0","0"
"AIK9IRPT4M848","dez_1b_fix_v3_pilot2","375","70","1","718","74","2","0","1","2","54","1","0","0","0","0,0,3,3,2,2","22","0","2017-08-17 14:35:25","0","0","0","0"
"A1IXH2QLUU5BKZ","dez_1b_fix_v3_pilot2","95","74","2","182","74","2","-2","0","4","81","0","0","0","0","-3,-4,-2,4,-2,-2","87","0","2017-08-17 14:35:27","0","0","0","0"
"AIK9IRPT4M848","dez_1b_fix_v3_pilot2","403","70","1","285","70","1","3","1","2","57","1","0","0","0","3,3,4,3,1,1","23","0","2017-08-17 14:35:31","0","0","0","0"
"A1IXH2QLUU5BKZ","dez_1b_fix_v3_pilot2","22","74","2","193","74","2","3","1","3","84","0","0","0","0","-2,-4,-4,3,-5,-5","88","0","2017-08-17 14:35:31","0","0","0","0"
"A1IXH2QLUU5BKZ","dez_1b_fix_v3_pilot2","158","74","2","159","74","2","5","1","3","89","0","0","0","0","-3,-4,-4,5,-4,-4","89","0","2017-08-17 14:35:35","0","0","0","0"
"AIK9IRPT4M848","dez_1b_fix_v3_pilot2","399","70","1","277","70","1","1","1","2","58","1","0","0","0","1,2,0,5,1,1","24","0","2017-08-17 14:35:36","0","0","0","0"
"A1IXH2QLUU5BKZ","dez_1b_fix_v3_pilot2","68","74","2","143","74","2","3","1","3","92","0","0","0","0","-5,-3,-5,3,-5,-5","90","0","2017-08-17 14:35:40","0","0","0","0"
"AIK9IRPT4M848","dez_1b_fix_v3_pilot2","327","74","2","671","70","1","2","1","3","60","1","0","0","0","2,1,2,4,3,3","25","0","2017-08-17 14:35:42","0","0","0","0"
"A1IXH2QLUU5BKZ","dez_1b_fix_v3_pilot2","221","74","2","17","74","2","0","1","3","92","0","0","0","0","-4,-2,-5,0,-3,-3","91","0","2017-08-17 14:35:44","0","0","0","0"
"AIK9IRPT4M848","dez_1b_fix_v3_pilot2","705","74","2","450","70","1","1","1","3","61","1","0","0","0","-1,-1,1,5,3,3","26","0","2017-08-17 14:35:48","0","0","0","0"
"A1IXH2QLUU5BKZ","dez_1b_fix_v3_pilot2","161","74","2","157","74","2","1","0","4","93","0","0","0","0","-3,-1,-3,-5,1,1","92","0","2017-08-17 14:35:48","0","0","0","0"
"A1IXH2QLUU5BKZ","dez_1b_fix_v3_pilot2","98","74","2","195","74","2","-3","1","3","90","0","0","0","0","-3,0,-4,-3,1,1","93","0","2017-08-17 14:35:52","0","0","0","0"
"AIK9IRPT4M848","dez_1b_fix_v3_pilot2","520","74","2","284","74","2","5","1","3","66","1","0","0","0","0,1,2,5,4,4","27","0","2017-08-17 14:35:53","0","0","0","0"
"AIK9IRPT4M848","dez_1b_fix_v3_pilot2","471","74","2","388","74","2","5","1","3","71","1","0","0","0","0,0,3,5,3,3","28","0","2017-08-17 14:35:59","0","0","0","0"
"AIK9IRPT4M848","dez_1b_fix_v3_pilot2","474","74","2","503","74","2","4","1","3","75","1","0","0","0","0,0,0,4,2,2","29","0","2017-08-17 14:36:04","0","0","0","0"
"A1IXH2QLUU5BKZ","dez_1b_fix_v3_pilot2","95","70","1","439","70","1","-2","1","2","88","0","0","0","3","-2,4,-4,-2,1,1","94","0","2017-08-17 14:36:07","0","0","0","0"
"AIK9IRPT4M848","dez_1b_fix_v3_pilot2","312","74","2","352","74","2","2","0","4","77","1","0","0","0","-3,-2,4,0,2,2","30","0","2017-08-17 14:36:10","0","0","0","0"
"A1IXH2QLUU5BKZ","dez_1b_fix_v3_pilot2","118","70","1","111","74","2","3","0","4","91","0","0","0","0","1,4,-3,-2,3,3","95","0","2017-08-17 14:36:11","0","0","0","0"
"AIK9IRPT4M848","dez_1b_fix_v3_pilot2","458","74","2","249","74","2","1","1","3","78","1","0","0","0","-4,-4,4,1,2,2","31","0","2017-08-17 14:36:15","0","0","0","0"
"A1IXH2QLUU5BKZ","dez_1b_fix_v3_pilot2","211","70","1","73","74","2","4","1","2","95","0","0","0","0","-1,4,-3,-4,4,4","96","0","2017-08-17 14:36:16","0","0","0","0"
"A1IXH2QLUU5BKZ","dez_1b_fix_v3_pilot2","1","70","1","140","74","2","5","0","4","100","0","0","0","0","1,5,-2,-4,5,5","97","0","2017-08-17 14:36:20","0","0","0","0"
"AIK9IRPT4M848","dez_1b_fix_v3_pilot2","343","70","1","383","70","1","-4","1","2","74","1","0","0","0","-4,-2,4,1,-1,-1","32","0","2017-08-17 14:36:21","0","0","0","0"
"A1IXH2QLUU5BKZ","dez_1b_fix_v3_pilot2","65","70","1","219","74","2","4","1","2","104","0","0","0","0","1,4,-1,-4,4,4","98","0","2017-08-17 14:36:24","0","0","0","0"
"AIK9IRPT4M848","dez_1b_fix_v3_pilot2","445","74","2","303","74","2","-1","0","4","73","1","0","0","0","-4,-3,2,2,-1,-1","33","0","2017-08-17 14:36:26","0","0","0","0"
"A1IXH2QLUU5BKZ","dez_1b_fix_v3_pilot2","133","70","1","192","74","2","4","1","2","108","0","0","0","0","3,4,-1,-3,5,5","99","0","2017-08-17 14:36:28","0","0","0","0"
"AIK9IRPT4M848","dez_1b_fix_v3_pilot2","418","74","2","501","74","2","3","1","3","76","1","0","0","0","-3,-4,4,3,-1,-1","34","0","2017-08-17 14:36:32","0","0","0","0"
"A1IXH2QLUU5BKZ","dez_1b_fix_v3_pilot2","238","70","1","245","74","2","5","0","4","113","0","0","0","0","1,4,-1,-5,5,5","100","0","2017-08-17 14:36:32","0","0","0","0"
"A1IXH2QLUU5BKZ","dez_1b_fix_v3_pilot2","69","70","1","81","74","2","4","1","2","117","0","0","0","0","0,4,1,-4,3,3","101","0","2017-08-17 14:36:36","0","0","0","0"
"AIK9IRPT4M848","dez_1b_fix_v3_pilot2","472","74","2","389","74","2","3","1","3","79","1","0","0","0","-4,-3,4,3,-3,-3","35","0","2017-08-17 14:36:37","0","0","0","0"
"A1IXH2QLUU5BKZ","dez_1b_fix_v3_pilot2","37","70","1","576","74","2","5","1","2","122","0","0","0","0","-2,5,2,-2,4,4","102","0","2017-08-17 14:36:41","0","0","0","0"
"AIK9IRPT4M848","dez_1b_fix_v3_pilot2","430","74","2","312","74","2","4","1","3","83","1","0","0","0","-2,-2,4,4,-4,-4","36","0","2017-08-17 14:36:43","0","0","0","0"
"A1IXH2QLUU5BKZ","dez_1b_fix_v3_pilot2","39","70","1","565","74","2","2","0","4","124","0","0","0","0","0,4,3,-4,2,2","103","0","2017-08-17 14:36:45","0","0","0","0"
"AIK9IRPT4M848","dez_1b_fix_v3_pilot2","568","74","2","390","74","2","3","1","3","86","1","0","0","0","-2,-2,4,3,-3,-3","37","0","2017-08-17 14:36:48","0","0","0","0"
"A1IXH2QLUU5BKZ","dez_1b_fix_v3_pilot2","550","70","1","249","74","2","1","0","4","125","0","0","0","0","0,3,2,-4,1,1","104","0","2017-08-17 14:36:50","0","0","0","0"
"A1IXH2QLUU5BKZ","dez_1b_fix_v3_pilot2","170","70","1","301","74","2","3","1","2","128","0","0","0","0","1,3,3,-4,2,2","105","0","2017-08-17 14:36:54","0","0","0","0"
"AIK9IRPT4M848","dez_1b_fix_v3_pilot2","1200","74","2","391","74","2","2","1","3","88","1","0","0","0","-3,0,5,2,-4,-4","38","0","2017-08-17 14:36:55","0","0","0","0"
"A1IXH2QLUU5BKZ","dez_1b_fix_v3_pilot2","264","70","1","224","74","2","3","1","2","131","0","0","0","0","-1,3,4,-4,4,4","106","0","2017-08-17 14:36:59","0","0","0","0"
"AIK9IRPT4M848","dez_1b_fix_v3_pilot2","508","74","2","587","74","2","1","1","3","89","1","0","0","0","-2,-2,5,1,-4,-4","39","0","2017-08-17 14:37:01","0","0","0","0"
"A1IXH2QLUU5BKZ","dez_1b_fix_v3_pilot2","402","70","1","479","74","2","3","1","2","134","0","0","0","0","-2,3,4,0,3,3","107","0","2017-08-17 14:37:03","0","0","0","0"
"A1IXH2QLUU5BKZ","dez_1b_fix_v3_pilot2","153","70","1","212","74","2","4","1","2","138","0","0","0","0","-2,4,0,-1,3,3","108","0","2017-08-17 14:37:08","0","0","0","0"
"A1IXH2QLUU5BKZ","dez_1b_fix_v3_pilot2","153","70","1","198","74","2","0","1","2","138","0","0","0","0","-3,0,-3,-1,5,5","109","0","2017-08-17 14:37:12","0","0","0","0"
"A1IXH2QLUU5BKZ","dez_1b_fix_v3_pilot2","414","70","1","214","74","2","-1","1","2","137","0","0","0","0","-1,-1,0,-3,4,4","110","0","2017-08-17 14:37:16","0","0","0","0"
"A1IXH2QLUU5BKZ","dez_1b_fix_v3_pilot2","257","70","1","486","70","1","-1","1","2","136","0","0","0","0","-1,1,-1,-5,4,4","111","0","2017-08-17 14:37:21","0","0","0","0"
"A1IXH2QLUU5BKZ","dez_1b_fix_v3_pilot2","192","74","2","202","70","1","-1","1","3","135","0","0","0","0","0,4,-1,-3,3,3","112","0","2017-08-17 14:37:25","0","0","0","0"
"A1IXH2QLUU5BKZ","dez_1b_fix_v3_pilot2","77","74","2","134","74","2","-4","1","3","131","0","0","0","0","-2,3,1,-4,5,5","113","0","2017-08-17 14:37:29","0","0","0","0"
"A1IXH2QLUU5BKZ","dez_1b_fix_v3_pilot2","77","74","2","362","70","1","4","0","4","135","0","0","0","0","-5,4,1,-3,4,4","114","0","2017-08-17 14:37:34","0","0","0","0"
"A1IXH2QLUU5BKZ","dez_1b_fix_v3_pilot2","1","74","2","133","70","1","5","0","4","140","0","0","0","0","-3,2,2,-2,5,5","115","0","2017-08-17 14:37:38","0","0","0","0"
"A1IXH2QLUU5BKZ","dez_1b_fix_v3_pilot2","560","74","2","229","70","1","-1","1","3","139","0","0","0","0","-2,1,-1,-1,4,4","116","0","2017-08-17 14:37:42","0","0","0","0"
"A1IXH2QLUU5BKZ","dez_1b_fix_v3_pilot2","38","74","2","201","70","1","0","1","3","139","0","0","0","0","-4,3,0,0,2,2","117","0","2017-08-17 14:37:46","0","0","0","0"
"A1IXH2QLUU5BKZ","dez_1b_fix_v3_pilot2","691","70","1","222","70","1","4","0","4","143","0","0","0","0","-4,3,0,-2,4,4","118","0","2017-08-17 14:37:51","0","0","0","0"
"A1IXH2QLUU5BKZ","dez_1b_fix_v3_pilot2","143","70","1","216","70","1","-4","1","2","139","0","0","0","0","-4,0,1,-4,5,5","119","0","2017-08-17 14:37:55","0","0","0","0"
"A1IXH2QLUU5BKZ","dez_1b_fix_v3_pilot2","420","70","1","271","74","2","4","1","2","143","0","0","0","0","-3,4,0,-2,2,2","120","0","2017-08-17 14:38:00","0","0","0","0"
"AIK9IRPT4M848","dez_1b_fix_v3_pilot2","1147","70","1","544","70","1","1","1","2","21","0","0","0","0","1,-3,0,-2,1,1","0","0","2017-08-17 14:38:03","0","0","0","0"
"A1IXH2QLUU5BKZ","dez_1b_fix_v3_pilot2","438","70","1","92","74","2","4","1","2","147","0","0","0","0","-3,4,-2,-2,2,2","121","0","2017-08-17 14:38:04","0","0","0","0"
"AIK9IRPT4M848","dez_1b_fix_v3_pilot2","471","70","1","457","74","2","2","0","4","23","0","0","0","0","2,-5,0,0,2,2","1","0","2017-08-17 14:38:08","0","0","0","0"
"A1IXH2QLUU5BKZ","dez_1b_fix_v3_pilot2","69","70","1","306","74","2","2","0","4","149","0","0","0","0","1,4,-2,-4,2,2","122","0","2017-08-17 14:38:09","0","0","0","0"
"AIK9IRPT4M848","dez_1b_fix_v3_pilot2","396","70","1","415","74","2","-4","1","2","19","0","0","0","0","1,-4,0,1,1,1","2","0","2017-08-17 14:38:13","0","0","0","0"
"A1IXH2QLUU5BKZ","dez_1b_fix_v3_pilot2","87","70","1","242","74","2","3","1","2","152","0","0","0","0","0,3,-2,0,4,4","123","0","2017-08-17 14:38:13","0","0","0","0"
"A1IXH2QLUU5BKZ","dez_1b_fix_v3_pilot2","136","70","1","188","74","2","0","1","2","152","0","0","0","0","1,0,-1,-2,3,3","124","0","2017-08-17 14:38:17","0","0","0","0"
"AIK9IRPT4M848","dez_1b_fix_v3_pilot2","850","74","2","516","70","1","-1","1","3","18","0","0","0","0","5,-4,-1,0,3,3","3","0","2017-08-17 14:38:18","0","0","0","0"
"A1IXH2QLUU5BKZ","dez_1b_fix_v3_pilot2","80","70","1","169","74","2","2","1","2","154","0","0","0","0","3,2,3,-3,5,5","125","0","2017-08-17 14:38:21","0","0","0","0"
"AIK9IRPT4M848","dez_1b_fix_v3_pilot2","443","74","2","403","74","2","1","1","3","19","0","0","0","0","1,-2,-2,1,3,3","4","0","2017-08-17 14:38:22","0","0","0","0"
"A1IXH2QLUU5BKZ","dez_1b_fix_v3_pilot2","2","70","1","168","74","2","4","1","2","158","0","0","0","0","-2,4,5,-1,5,5","126","0","2017-08-17 14:38:25","0","0","0","0"
"AIK9IRPT4M848","dez_1b_fix_v3_pilot2","531","74","2","443","74","2","2","1","3","21","0","0","0","0","0,-2,0,2,4,4","5","0","2017-08-17 14:38:27","0","0","0","0"
"A1IXH2QLUU5BKZ","dez_1b_fix_v3_pilot2","79","70","1","234","74","2","3","1","2","161","0","0","0","0","0,3,4,-1,4,4","127","0","2017-08-17 14:38:29","0","0","0","0"
"AIK9IRPT4M848","dez_1b_fix_v3_pilot2","387","74","2","699","74","2","4","0","4","25","0","0","0","0","-1,-4,0,2,4,4","6","0","2017-08-17 14:38:32","0","0","0","0"
"A1IXH2QLUU5BKZ","dez_1b_fix_v3_pilot2","44","70","1","224","74","2","3","1","2","164","0","0","0","0","-3,3,2,-2,4,4","128","0","2017-08-17 14:38:33","0","0","0","0"
"AIK9IRPT4M848","dez_1b_fix_v3_pilot2","401","74","2","633","74","2","3","0","4","28","0","0","0","0","-2,-4,0,3,3,3","7","0","2017-08-17 14:38:37","0","0","0","0"
"A1IXH2QLUU5BKZ","dez_1b_fix_v3_pilot2","33","70","1","253","74","2","2","1","2","166","0","0","0","0","-2,2,1,-2,3,3","129","0","2017-08-17 14:38:38","0","0","0","0"
"A1IXH2QLUU5BKZ","dez_1b_fix_v3_pilot2","200","70","1","251","74","2","0","1","2","166","0","0","0","0","-2,0,3,-3,5,5","130","0","2017-08-17 14:38:42","0","0","0","0"
"AIK9IRPT4M848","dez_1b_fix_v3_pilot2","486","74","2","525","74","2","4","0","4","32","0","0","0","0","-2,-2,4,3,4,4","8","0","2017-08-17 14:38:42","0","0","0","0"
"A1IXH2QLUU5BKZ","dez_1b_fix_v3_pilot2","487","70","1","182","74","2","-3","1","2","163","0","0","0","0","0,-3,2,-2,4,4","131","0","2017-08-17 14:38:46","0","0","0","0"
"AIK9IRPT4M848","dez_1b_fix_v3_pilot2","353","74","2","441","74","2","4","1","3","36","0","0","0","0","-3,-3,3,4,2,2","9","0","2017-08-17 14:38:47","0","0","0","0"
"A1IXH2QLUU5BKZ","dez_1b_fix_v3_pilot2","229","74","2","102","74","2","0","1","3","163","0","0","0","0","-1,-2,2,0,3,3","132","0","2017-08-17 14:38:51","0","0","0","0"
"AIK9IRPT4M848","dez_1b_fix_v3_pilot2","399","74","2","364","74","2","3","1","3","39","0","0","0","0","-4,-4,3,3,5,5","10","0","2017-08-17 14:38:51","0","0","0","0"
"A1IXH2QLUU5BKZ","dez_1b_fix_v3_pilot2","194","74","2","37","74","2","4","0","4","167","0","0","0","0","-2,-2,-3,-1,4,4","133","0","2017-08-17 14:38:55","0","0","0","0"
"AIK9IRPT4M848","dez_1b_fix_v3_pilot2","349","74","2","471","74","2","0","1","3","39","0","0","0","0","-4,-5,4,0,5,5","11","0","2017-08-17 14:38:56","0","0","0","0"
"A1IXH2QLUU5BKZ","dez_1b_fix_v3_pilot2","143","74","2","240","74","2","-1","1","3","166","0","0","0","0","1,-3,-1,-1,3,3","134","0","2017-08-17 14:38:59","0","0","0","0"
"AIK9IRPT4M848","dez_1b_fix_v3_pilot2","613","70","1","428","70","1","-5","1","2","34","0","0","0","0","-5,-4,3,0,4,4","12","0","2017-08-17 14:39:01","0","0","0","0"
"A1IXH2QLUU5BKZ","dez_1b_fix_v3_pilot2","186","74","2","444","74","2","4","0","4","170","0","0","0","0","2,-1,0,1,4,4","135","0","2017-08-17 14:39:03","0","0","0","0"
"AIK9IRPT4M848","dez_1b_fix_v3_pilot2","556","70","1","351","74","2","-4","1","2","30","0","0","0","0","-4,-4,4,3,3,3","13","0","2017-08-17 14:39:06","0","0","0","0"
"A1IXH2QLUU5BKZ","dez_1b_fix_v3_pilot2","229","74","2","734","74","2","4","1","3","174","0","0","0","0","5,1,2,4,2,2","136","0","2017-08-17 14:39:08","0","0","0","0"
"AIK9IRPT4M848","dez_1b_fix_v3_pilot2","396","74","2","659","70","1","2","1","3","32","0","0","0","0","-4,-4,2,2,4,4","14","0","2017-08-17 14:39:11","0","0","0","0"
"AIK9IRPT4M848","dez_1b_fix_v3_pilot2","625","74","2","632","70","1","0","1","3","32","0","0","0","0","-4,-4,0,-1,3,3","15","0","2017-08-17 14:39:16","0","0","0","0"
"A1IXH2QLUU5BKZ","dez_1b_fix_v3_pilot2","871","74","2","264","74","2","5","1","3","179","0","0","0","1","4,-3,0,5,-1,-1","137","0","2017-08-17 14:39:17","0","0","0","0"
"AIK9IRPT4M848","dez_1b_fix_v3_pilot2","411","74","2","673","74","2","1","0","4","33","0","0","0","0","-4,-4,1,1,1,1","16","0","2017-08-17 14:39:21","0","0","0","0"
"A1IXH2QLUU5BKZ","dez_1b_fix_v3_pilot2","87","74","2","121","74","2","4","1","3","183","0","0","0","0","5,-4,-1,4,-1,-1","138","0","2017-08-17 14:39:21","0","0","0","0"
"A1IXH2QLUU5BKZ","dez_1b_fix_v3_pilot2","64","74","2","179","74","2","4","1","3","187","0","0","0","0","4,-4,-2,4,-1,-1","139","0","2017-08-17 14:39:25","0","0","0","0"
"AIK9IRPT4M848","dez_1b_fix_v3_pilot2","353","74","2","327","74","2","0","1","3","33","0","0","0","0","-4,-5,0,0,1,1","17","0","2017-08-17 14:39:25","0","0","0","0"
"A1IXH2QLUU5BKZ","dez_1b_fix_v3_pilot2","37","74","2","197","74","2","4","1","3","191","0","0","0","0","4,-2,-3,4,1,1","140","0","2017-08-17 14:39:29","0","0","0","0"
"AIK9IRPT4M848","dez_1b_fix_v3_pilot2","376","74","2","792","70","1","2","0","4","35","0","0","0","0","-1,-2,1,-2,2,2","18","0","2017-08-17 14:39:30","0","0","0","0"
"A1IXH2QLUU5BKZ","dez_1b_fix_v3_pilot2","201","74","2","206","74","2","4","1","3","195","0","0","0","0","2,-1,-1,4,3,3","141","0","2017-08-17 14:39:33","0","0","0","0"
"AIK9IRPT4M848","dez_1b_fix_v3_pilot2","474","74","2","506","70","1","-2","1","3","33","0","0","0","0","1,-1,-2,1,3,3","19","0","2017-08-17 14:39:35","0","0","0","0"
"A1IXH2QLUU5BKZ","dez_1b_fix_v3_pilot2","277","74","2","40","74","2","4","1","3","199","0","0","0","0","3,1,0,4,2,2","142","0","2017-08-17 14:39:38","0","0","0","0"
"AIK9IRPT4M848","dez_1b_fix_v3_pilot2","369","70","1","599","70","1","2","1","2","35","0","0","0","0","2,-3,-4,4,1,1","20","0","2017-08-17 14:39:40","0","0","0","0"
"A1IXH2QLUU5BKZ","dez_1b_fix_v3_pilot2","90","74","2","138","74","2","3","0","4","202","0","0","0","0","0,0,4,4,3,3","143","0","2017-08-17 14:39:42","0","0","0","0"
"AIK9IRPT4M848","dez_1b_fix_v3_pilot2","357","70","1","573","74","2","-1","1","2","34","0","0","0","0","3,-1,-3,4,1,1","21","0","2017-08-17 14:39:45","0","0","0","0"
"A1IXH2QLUU5BKZ","dez_1b_fix_v3_pilot2","98","74","2","150","74","2","4","1","3","206","0","0","0","0","-2,0,1,4,5,5","144","0","2017-08-17 14:39:46","0","0","0","0"
"AIK9IRPT4M848","dez_1b_fix_v3_pilot2","356","70","1","282","70","1","2","0","4","36","0","0","0","0","2,0,-4,4,2,2","22","0","2017-08-17 14:39:49","0","0","0","0"
"A1IXH2QLUU5BKZ","dez_1b_fix_v3_pilot2","161","74","2","140","74","2","4","1","3","210","0","0","0","0","-3,1,-1,4,1,1","145","0","2017-08-17 14:39:50","0","0","0","0"
"A1IXH2QLUU5BKZ","dez_1b_fix_v3_pilot2","4","74","2","13","74","2","4","0","4","214","0","0","0","0","-1,2,3,4,4,4","146","0","2017-08-17 14:39:54","0","0","0","0"
"AIK9IRPT4M848","dez_1b_fix_v3_pilot2","432","70","1","417","70","1","-1","0","4","35","0","0","0","0","1,0,-1,5,-1,-1","23","0","2017-08-17 14:39:54","0","0","0","0"
"A1IXH2QLUU5BKZ","dez_1b_fix_v3_pilot2","7","74","2","197","74","2","3","1","3","217","0","0","0","0","-3,5,0,3,5,5","147","0","2017-08-17 14:39:58","0","0","0","0"
"AIK9IRPT4M848","dez_1b_fix_v3_pilot2","386","70","1","617","70","1","1","0","4","36","0","0","0","0","3,-2,-4,3,1,1","24","0","2017-08-17 14:39:59","0","0","0","0"
"A1IXH2QLUU5BKZ","dez_1b_fix_v3_pilot2","89","74","2","182","74","2","4","0","4","221","0","0","0","0","-1,3,2,2,4,4","148","0","2017-08-17 14:40:02","0","0","0","0"
"AIK9IRPT4M848","dez_1b_fix_v3_pilot2","460","70","1","597","70","1","5","1","2","41","0","0","0","0","5,-4,-4,5,1,1","25","0","2017-08-17 14:40:04","0","0","0","0"
"A1IXH2QLUU5BKZ","dez_1b_fix_v3_pilot2","169","74","2","216","74","2","1","1","3","222","0","0","0","0","-5,1,4,1,4,4","149","0","2017-08-17 14:40:06","0","0","0","0"
"AIK9IRPT4M848","dez_1b_fix_v3_pilot2","390","70","1","282","70","1","4","1","2","45","0","0","0","0","4,-1,-4,3,-1,-1","26","0","2017-08-17 14:40:08","0","0","0","0"
"A1IXH2QLUU5BKZ","dez_1b_fix_v3_pilot2","56","74","2","211","74","2","2","1","3","224","0","0","0","0","-2,-1,5,2,3,3","150","0","2017-08-17 14:40:10","0","0","0","0"
"AIK9IRPT4M848","dez_1b_fix_v3_pilot2","430","70","1","316","70","1","4","1","2","49","0","0","0","0","4,3,-4,2,-2,-2","27","0","2017-08-17 14:40:13","0","0","0","0"
"A1IXH2QLUU5BKZ","dez_1b_fix_v3_pilot2","152","74","2","5","74","2","3","0","4","227","0","0","0","0","-1,0,2,3,3,3","151","0","2017-08-17 14:40:14","0","0","0","0"
"AIK9IRPT4M848","dez_1b_fix_v3_pilot2","489","70","1","331","70","1","4","1","2","53","0","0","0","0","4,4,-3,5,-1,-1","28","0","2017-08-17 14:40:18","0","0","0","0"
"A1IXH2QLUU5BKZ","dez_1b_fix_v3_pilot2","144","74","2","8","74","2","2","0","4","229","0","0","0","0","-4,-1,2,2,2,2","152","0","2017-08-17 14:40:18","0","0","0","0"
"A1IXH2QLUU5BKZ","dez_1b_fix_v3_pilot2","37","74","2","33","74","2","1","1","3","230","0","0","0","0","-1,-2,3,1,1,1","153","0","2017-08-17 14:40:22","0","0","0","0"
"AIK9IRPT4M848","dez_1b_fix_v3_pilot2","471","70","1","417","70","1","4","1","2","57","0","0","0","0","4,4,-2,4,-3,-3","29","0","2017-08-17 14:40:22","0","0","0","0"
"A1IXH2QLUU5BKZ","dez_1b_fix_v3_pilot2","173","74","2","7","74","2","2","1","3","232","0","0","0","0","-3,-1,3,2,2,2","154","0","2017-08-17 14:40:26","0","0","0","0"
"AIK9IRPT4M848","dez_1b_fix_v3_pilot2","581","70","1","535","70","1","3","1","2","60","0","0","0","0","3,3,-3,5,-4,-4","30","0","2017-08-17 14:40:27","0","0","0","0"
"A1IXH2QLUU5BKZ","dez_1b_fix_v3_pilot2","63","74","2","29","74","2","0","1","3","232","0","0","0","0","-5,-3,2,0,2,2","155","0","2017-08-17 14:40:30","0","0","0","0"
"AIK9IRPT4M848","dez_1b_fix_v3_pilot2","1121","70","1","611","70","1","3","1","2","63","0","0","0","0","3,2,-3,4,-5,-5","31","0","2017-08-17 14:40:33","0","0","0","0"
"A1IXH2QLUU5BKZ","dez_1b_fix_v3_pilot2","126","74","2","175","74","2","1","1","3","233","0","0","0","0","-4,-4,0,1,1,1","156","0","2017-08-17 14:40:34","0","0","0","0"
"AIK9IRPT4M848","dez_1b_fix_v3_pilot2","313","70","1","824","70","1","-3","0","4","60","0","0","0","0","4,3,-2,2,-3,-3","32","0","2017-08-17 14:40:38","0","0","0","0"
"A1IXH2QLUU5BKZ","dez_1b_fix_v3_pilot2","93","74","2","169","74","2","0","1","3","233","0","0","0","0","-4,-4,-3,0,4,4","157","0","2017-08-17 14:40:39","0","0","0","0"
"AIK9IRPT4M848","dez_1b_fix_v3_pilot2","242","70","1","363","70","1","5","1","2","65","0","0","0","0","5,4,-4,1,-2,-2","33","0","2017-08-17 14:40:42","0","0","0","0"
"A1IXH2QLUU5BKZ","dez_1b_fix_v3_pilot2","203","74","2","182","74","2","0","1","3","233","0","0","0","0","-4,-5,-1,0,3,3","158","0","2017-08-17 14:40:43","0","0","0","0"
"AIK9IRPT4M848","dez_1b_fix_v3_pilot2","354","70","1","254","70","1","3","1","2","68","0","0","0","0","3,1,-5,3,-3,-3","34","0","2017-08-17 14:40:47","0","0","0","0"
"A1IXH2QLUU5BKZ","dez_1b_fix_v3_pilot2","55","74","2","68","74","2","-2","1","3","231","0","0","0","0","-4,-3,-2,-2,2,2","159","0","2017-08-17 14:40:47","0","0","0","0"
"AIK9IRPT4M848","dez_1b_fix_v3_pilot2","282","70","1","351","70","1","5","1","2","73","0","0","0","0","5,1,-4,5,-1,-1","35","0","2017-08-17 14:40:51","0","0","0","0"
"A1IXH2QLUU5BKZ","dez_1b_fix_v3_pilot2","1555","70","1","129","70","1","4","0","4","235","0","0","0","0","-4,-3,-2,-3,4,4","160","0","2017-08-17 14:40:52","0","0","0","0"
"AIK9IRPT4M848","dez_1b_fix_v3_pilot2","341","70","1","323","70","1","4","1","2","77","0","0","0","0","4,0,-3,4,-1,-1","36","0","2017-08-17 14:40:56","0","0","0","0"
"A1IXH2QLUU5BKZ","dez_1b_fix_v3_pilot2","121","70","1","95","70","1","3","0","4","238","0","0","0","0","-4,-3,0,-2,3,3","161","0","2017-08-17 14:40:56","0","0","0","0"
"AIK9IRPT4M848","dez_1b_fix_v3_pilot2","375","70","1","236","70","1","2","1","2","79","0","0","0","0","2,-2,-4,4,1,1","37","0","2017-08-17 14:41:00","0","0","0","0"
"A1IXH2QLUU5BKZ","dez_1b_fix_v3_pilot2","126","70","1","65","70","1","-4","1","2","234","0","0","0","0","-4,-2,-2,-2,5,5","162","0","2017-08-17 14:41:01","0","0","0","0"
"A1IXH2QLUU5BKZ","dez_1b_fix_v3_pilot2","149","70","1","261","74","2","0","1","2","234","0","0","0","0","-4,0,-2,-3,5,5","163","0","2017-08-17 14:41:05","0","0","0","0"
"AIK9IRPT4M848","dez_1b_fix_v3_pilot2","508","70","1","317","70","1","3","1","2","82","0","0","0","0","3,0,0,1,2,2","38","0","2017-08-17 14:41:05","0","0","0","0"
"A1IXH2QLUU5BKZ","dez_1b_fix_v3_pilot2","231","70","1","171","74","2","-1","1","2","233","0","0","0","0","-3,-1,1,-2,3,3","164","0","2017-08-17 14:41:09","0","0","0","0"
"AIK9IRPT4M848","dez_1b_fix_v3_pilot2","306","70","1","18","70","1","3","1","2","85","0","0","0","0","3,0,3,1,5,5","39","0","2017-08-17 14:41:09","0","0","0","0"
"A1IXH2QLUU5BKZ","dez_1b_fix_v3_pilot2","67","70","1","489","74","2","0","1","2","233","0","0","0","0","-4,0,4,-3,2,2","165","0","2017-08-17 14:41:14","0","0","0","0"
"AIK9IRPT4M848","dez_1b_fix_v3_pilot2","428","70","1","289","70","1","3","1","2","88","0","0","0","0","3,0,3,1,4,4","40","0","2017-08-17 14:41:14","0","0","0","0"
"A1IXH2QLUU5BKZ","dez_1b_fix_v3_pilot2","110","70","1","271","74","2","2","1","2","235","0","0","0","0","-4,2,4,-4,4,4","166","0","2017-08-17 14:41:18","0","0","0","0"
"AIK9IRPT4M848","dez_1b_fix_v3_pilot2","356","70","1","653","70","1","5","0","4","93","0","0","0","0","4,4,4,3,5,5","41","0","2017-08-17 14:41:19","0","0","0","0"
"A1IXH2QLUU5BKZ","dez_1b_fix_v3_pilot2","411","70","1","265","74","2","1","1","2","236","0","0","0","0","-2,1,4,-5,5,5","167","0","2017-08-17 14:41:22","0","0","0","0"
"AIK9IRPT4M848","dez_1b_fix_v3_pilot2","362","70","1","297","70","1","3","1","2","96","0","0","0","0","3,4,4,5,2,2","42","0","2017-08-17 14:41:23","0","0","0","0"
"A1IXH2QLUU5BKZ","dez_1b_fix_v3_pilot2","124","70","1","339","74","2","3","1","2","239","0","0","0","0","-2,3,5,-4,3,3","168","0","2017-08-17 14:41:27","0","0","0","0"
"AIK9IRPT4M848","dez_1b_fix_v3_pilot2","316","70","1","290","70","1","2","1","2","98","0","0","0","0","2,3,4,4,4,4","43","0","2017-08-17 14:41:28","0","0","0","0"
"A1IXH2QLUU5BKZ","dez_1b_fix_v3_pilot2","335","70","1","176","74","2","2","1","2","241","0","0","0","0","3,2,4,-3,4,4","169","0","2017-08-17 14:41:31","0","0","0","0"
"AIK9IRPT4M848","dez_1b_fix_v3_pilot2","343","70","1","320","70","1","3","1","2","101","0","0","0","0","3,1,5,5,5,5","44","0","2017-08-17 14:41:32","0","0","0","0"
"A1IXH2QLUU5BKZ","dez_1b_fix_v3_pilot2","60","70","1","217","74","2","-1","1","2","240","0","0","0","0","5,-1,4,-2,4,4","170","0","2017-08-17 14:41:35","0","0","0","0"
"AIK9IRPT4M848","dez_1b_fix_v3_pilot2","365","70","1","282","70","1","3","0","4","104","0","0","0","0","2,2,4,3,3,3","45","0","2017-08-17 14:41:37","0","0","0","0"
"A1IXH2QLUU5BKZ","dez_1b_fix_v3_pilot2","485","70","1","279","74","2","2","1","2","242","0","0","0","0","4,2,2,0,4,4","171","0","2017-08-17 14:41:40","0","0","0","0"
"AIK9IRPT4M848","dez_1b_fix_v3_pilot2","266","70","1","281","70","1","2","1","2","106","0","0","0","0","2,4,4,3,3,3","46","0","2017-08-17 14:41:41","0","0","0","0"
"A1IXH2QLUU5BKZ","dez_1b_fix_v3_pilot2","216","70","1","265","74","2","1","1","2","243","0","0","0","0","2,1,0,-1,4,4","172","0","2017-08-17 14:41:44","0","0","0","0"
"AIK9IRPT4M848","dez_1b_fix_v3_pilot2","272","70","1","288","70","1","3","1","2","109","0","0","0","0","3,4,4,4,3,3","47","0","2017-08-17 14:41:46","0","0","0","0"
"A1IXH2QLUU5BKZ","dez_1b_fix_v3_pilot2","30","70","1","332","74","2","0","1","2","243","0","0","0","0","2,0,0,0,5,5","173","0","2017-08-17 14:41:48","0","0","0","0"
"AIK9IRPT4M848","dez_1b_fix_v3_pilot2","318","70","1","318","70","1","4","1","2","113","0","0","0","0","4,5,5,3,-1,-1","48","0","2017-08-17 14:41:50","0","0","0","0"
"A1IXH2QLUU5BKZ","dez_1b_fix_v3_pilot2","39","70","1","261","74","2","0","1","2","243","0","0","0","0","-2,0,0,-5,4,4","174","0","2017-08-17 14:41:53","0","0","0","0"
"AIK9IRPT4M848","dez_1b_fix_v3_pilot2","453","70","1","283","70","1","3","1","2","116","0","0","0","0","3,5,4,4,1,1","49","0","2017-08-17 14:41:55","0","0","0","0"
"AIK9IRPT4M848","dez_1b_fix_v3_pilot2","365","70","1","353","70","1","4","1","2","120","0","0","0","0","4,5,4,5,1,1","50","0","2017-08-17 14:41:59","0","0","0","0"
"AIK9IRPT4M848","dez_1b_fix_v3_pilot2","474","70","1","405","70","1","4","0","4","124","0","0","0","0","4,2,4,4,4,4","51","0","2017-08-17 14:42:04","0","0","0","0"
"AIK9IRPT4M848","dez_1b_fix_v3_pilot2","336","70","1","477","70","1","2","0","4","126","0","0","0","0","5,2,4,3,2,2","52","0","2017-08-17 14:42:09","0","0","0","0"
"AIK9IRPT4M848","dez_1b_fix_v3_pilot2","380","70","1","308","70","1","2","1","2","128","0","0","0","0","2,0,4,1,1,1","53","0","2017-08-17 14:42:13","0","0","0","0"
"AIK9IRPT4M848","dez_1b_fix_v3_pilot2","355","70","1","284","70","1","-1","1","2","127","0","0","0","0","-1,2,5,2,-1,-1","54","0","2017-08-17 14:42:18","0","0","0","0"
"AIK9IRPT4M848","dez_1b_fix_v3_pilot2","819","74","2","517","70","1","3","1","3","130","0","0","0","0","0,5,3,5,1,1","55","0","2017-08-17 14:42:23","0","0","0","0"
"AIK9IRPT4M848","dez_1b_fix_v3_pilot2","657","74","2","327","70","1","5","1","3","135","0","0","0","0","-1,2,5,4,-2,-2","56","0","2017-08-17 14:42:28","0","0","0","0"
"AIK9IRPT4M848","dez_1b_fix_v3_pilot2","553","74","2","298","70","1","3","1","3","138","0","0","0","0","-3,1,3,4,-2,-2","57","0","2017-08-17 14:42:32","0","0","0","0"
"AIK9IRPT4M848","dez_1b_fix_v3_pilot2","592","74","2","336","70","1","5","1","3","143","0","0","0","0","-4,-2,5,2,-4,-4","58","0","2017-08-17 14:42:37","0","0","0","0"
"AIK9IRPT4M848","dez_1b_fix_v3_pilot2","443","74","2","299","70","1","3","1","3","146","0","0","0","0","-5,-3,3,2,-4,-4","59","0","2017-08-17 14:42:42","0","0","0","0"
"AIK9IRPT4M848","dez_1b_fix_v3_pilot2","372","74","2","263","70","1","4","1","3","150","0","0","0","0","-5,-2,4,2,-3,-3","60","0","2017-08-17 14:42:46","0","0","0","0"
"AIK9IRPT4M848","dez_1b_fix_v3_pilot2","423","74","2","238","70","1","-1","0","4","149","0","0","0","0","-4,-4,5,1,-1,-1","61","0","2017-08-17 14:42:51","0","0","0","0"
"AIK9IRPT4M848","dez_1b_fix_v3_pilot2","346","74","2","333","70","1","4","1","3","153","0","0","0","0","-2,-2,4,2,-3,-3","62","0","2017-08-17 14:42:55","0","0","0","0"
"AIK9IRPT4M848","dez_1b_fix_v3_pilot2","426","74","2","349","70","1","4","1","3","157","0","0","0","0","-1,-1,4,3,-4,-4","63","0","2017-08-17 14:43:00","0","0","0","0"
"AIK9IRPT4M848","dez_1b_fix_v3_pilot2","428","74","2","372","70","1","4","1","3","161","0","0","0","0","-2,-1,4,5,-4,-4","64","0","2017-08-17 14:43:05","0","0","0","0"
"AIK9IRPT4M848","dez_1b_fix_v3_pilot2","633","74","2","374","70","1","2","1","3","163","0","0","0","0","-3,-1,2,3,-4,-4","65","0","2017-08-17 14:43:10","0","0","0","0"
"AIK9IRPT4M848","dez_1b_fix_v3_pilot2","263","74","2","311","70","1","2","1","3","165","0","0","0","0","-3,0,2,2,-4,-4","66","0","2017-08-17 14:43:14","0","0","0","0"
"AIK9IRPT4M848","dez_1b_fix_v3_pilot2","822","74","2","383","70","1","-2","1","3","163","0","0","0","0","-3,0,-2,1,-3,-3","67","0","2017-08-17 14:43:19","0","0","0","0"
"AIK9IRPT4M848","dez_1b_fix_v3_pilot2","345","70","1","331","70","1","-3","1","2","160","0","0","0","0","-3,-1,-3,3,-4,-4","68","0","2017-08-17 14:43:24","0","0","0","0"
"AIK9IRPT4M848","dez_1b_fix_v3_pilot2","527","70","1","289","74","2","-1","1","2","159","0","0","0","0","-5,-1,-3,2,-4,-4","69","0","2017-08-17 14:43:28","0","0","0","0"
"AIK9IRPT4M848","dez_1b_fix_v3_pilot2","346","74","2","320","74","2","3","1","3","162","0","0","0","0","1,0,-4,3,-3,-3","70","0","2017-08-17 14:43:33","0","0","0","0"
"AIK9IRPT4M848","dez_1b_fix_v3_pilot2","398","74","2","432","74","2","0","1","3","162","0","0","0","0","3,2,-2,0,-2,-2","71","0","2017-08-17 14:43:38","0","0","0","0"
"AIK9IRPT4M848","dez_1b_fix_v3_pilot2","348","74","2","576","70","1","-3","1","3","159","0","0","0","0","4,1,-3,0,-2,-2","72","0","2017-08-17 14:43:43","0","0","0","0"
"AIK9IRPT4M848","dez_1b_fix_v3_pilot2","321","70","1","297","74","2","2","1","2","161","0","0","0","0","3,2,-4,1,-1,-1","73","0","2017-08-17 14:43:47","0","0","0","0"
"AIK9IRPT4M848","dez_1b_fix_v3_pilot2","391","70","1","257","74","2","-1","1","2","160","0","0","0","0","4,-1,-5,1,-3,-3","74","0","2017-08-17 14:43:51","0","0","0","0"
"AIK9IRPT4M848","dez_1b_fix_v3_pilot2","306","70","1","244","70","1","5","1","2","165","0","0","0","0","5,-2,-4,1,-4,-4","75","0","2017-08-17 14:43:56","0","0","0","0"
"AIK9IRPT4M848","dez_1b_fix_v3_pilot2","355","70","1","284","70","1","-4","0","4","161","0","0","0","0","4,-2,-4,1,-4,-4","76","0","2017-08-17 14:44:00","0","0","0","0"
"AIK9IRPT4M848","dez_1b_fix_v3_pilot2","364","70","1","260","70","1","4","1","2","165","0","0","0","0","4,-2,-4,0,-4,-4","77","0","2017-08-17 14:44:05","0","0","0","0"
"AIK9IRPT4M848","dez_1b_fix_v3_pilot2","372","70","1","277","70","1","-5","0","4","160","0","0","0","0","5,-2,-5,-2,-5,-5","78","0","2017-08-17 14:44:09","0","0","0","0"
"AIK9IRPT4M848","dez_1b_fix_v3_pilot2","337","70","1","247","70","1","3","1","2","163","0","0","0","0","3,-1,-4,0,-4,-4","79","0","2017-08-17 14:44:14","0","0","0","0"
"AIK9IRPT4M848","dez_1b_fix_v3_pilot2","352","70","1","327","70","1","2","1","2","165","0","0","0","0","2,2,-1,-1,-3,-3","80","0","2017-08-17 14:44:18","0","0","0","0"
"AIK9IRPT4M848","dez_1b_fix_v3_pilot2","246","70","1","218","70","1","-3","0","4","162","0","0","0","0","3,2,-1,0,-3,-3","81","0","2017-08-17 14:44:23","0","0","0","0"
"AIK9IRPT4M848","dez_1b_fix_v3_pilot2","361","70","1","184","70","1","-3","0","4","159","0","0","0","0","4,1,0,2,-3,-3","82","0","2017-08-17 14:44:27","0","0","0","0"
"AIK9IRPT4M848","dez_1b_fix_v3_pilot2","238","70","1","227","70","1","2","1","2","161","0","0","0","0","2,0,-3,4,-3,-3","83","0","2017-08-17 14:44:31","0","0","0","0"
"AIK9IRPT4M848","dez_1b_fix_v3_pilot2","274","70","1","219","70","1","1","1","2","162","0","0","0","0","1,4,-4,2,-2,-2","84","0","2017-08-17 14:44:36","0","0","0","0"
"AIK9IRPT4M848","dez_1b_fix_v3_pilot2","385","74","2","256","70","1","-2","1","3","160","0","0","0","0","0,4,-2,4,-2,-2","85","0","2017-08-17 14:44:40","0","0","0","0"
"AIK9IRPT4M848","dez_1b_fix_v3_pilot2","292","74","2","247","74","2","-2","0","4","158","0","0","0","0","2,5,-3,4,-2,-2","86","0","2017-08-17 14:44:45","0","0","0","0"
"AIK9IRPT4M848","dez_1b_fix_v3_pilot2","285","74","2","255","74","2","3","1","3","161","0","0","0","0","3,5,-2,3,-3,-3","87","0","2017-08-17 14:44:49","0","0","0","0"
"AIK9IRPT4M848","dez_1b_fix_v3_pilot2","569","74","2","232","74","2","-4","0","4","157","0","0","0","0","2,3,-2,1,-4,-4","88","0","2017-08-17 14:44:54","0","0","0","0"
"AIK9IRPT4M848","dez_1b_fix_v3_pilot2","311","74","2","228","74","2","-5","0","4","152","0","0","0","0","1,4,-3,3,-5,-5","89","0","2017-08-17 14:44:58","0","0","0","0"
"AIK9IRPT4M848","dez_1b_fix_v3_pilot2","12","74","2","928","74","2","-4","0","4","148","0","0","0","0","0,4,-2,1,-4,-4","90","0","2017-08-17 14:45:03","0","0","0","0"
"AIK9IRPT4M848","dez_1b_fix_v3_pilot2","379","74","2","252","74","2","-3","0","4","145","0","0","0","0","3,5,2,1,-3,-3","91","0","2017-08-17 14:45:08","0","0","0","0"
"AIK9IRPT4M848","dez_1b_fix_v3_pilot2","288","74","2","299","74","2","-3","0","4","142","0","0","0","0","3,4,3,2,-3,-3","92","0","2017-08-17 14:45:14","0","0","0","0"
"AIK9IRPT4M848","dez_1b_fix_v3_pilot2","371","74","2","325","74","2","3","1","3","145","0","0","0","0","3,4,4,3,-1,-1","93","0","2017-08-17 14:45:16","0","0","0","0"
"AIK9IRPT4M848","dez_1b_fix_v3_pilot2","268","74","2","361","74","2","3","1","3","148","0","0","0","0","5,2,4,3,-1,-1","94","0","2017-08-17 14:45:22","0","0","0","0"
"AIK9IRPT4M848","dez_1b_fix_v3_pilot2","548","74","2","218","74","2","3","1","3","151","0","0","0","0","2,1,4,3,-3,-3","95","0","2017-08-17 14:45:25","0","0","0","0"
"AIK9IRPT4M848","dez_1b_fix_v3_pilot2","309","74","2","260","74","2","5","1","3","156","0","0","0","0","2,4,2,5,-4,-4","96","0","2017-08-17 14:45:30","0","0","0","0"
"AIK9IRPT4M848","dez_1b_fix_v3_pilot2","337","74","2","314","74","2","3","1","3","159","0","0","0","0","1,3,2,3,-5,-5","97","0","2017-08-17 14:45:34","0","0","0","0"
"AIK9IRPT4M848","dez_1b_fix_v3_pilot2","348","74","2","250","74","2","4","1","3","163","0","0","0","0","2,0,3,4,-3,-3","98","0","2017-08-17 14:45:39","0","0","0","0"
"AIK9IRPT4M848","dez_1b_fix_v3_pilot2","303","74","2","246","74","2","3","1","3","166","0","0","0","0","2,-1,4,3,-4,-4","99","0","2017-08-17 14:45:43","0","0","0","0"
"AIK9IRPT4M848","dez_1b_fix_v3_pilot2","296","74","2","266","74","2","5","1","3","171","0","0","0","0","2,-2,2,5,-2,-2","100","0","2017-08-17 14:45:48","0","0","0","0"
"AIK9IRPT4M848","dez_1b_fix_v3_pilot2","271","74","2","291","74","2","4","1","3","175","0","0","0","0","2,1,-1,4,-3,-3","101","0","2017-08-17 14:45:52","0","0","0","0"
"AIK9IRPT4M848","dez_1b_fix_v3_pilot2","450","74","2","310","74","2","3","1","3","178","0","0","0","0","-1,0,-1,3,-2,-2","102","0","2017-08-17 14:45:57","0","0","0","0"
"AIK9IRPT4M848","dez_1b_fix_v3_pilot2","354","74","2","252","74","2","4","1","3","182","0","0","0","0","0,0,-3,4,1,1","103","0","2017-08-17 14:46:01","0","0","0","0"
"AIK9IRPT4M848","dez_1b_fix_v3_pilot2","425","74","2","246","74","2","4","1","3","186","0","0","0","0","1,-2,-1,4,1,1","104","0","2017-08-17 14:46:06","0","0","0","0"
"AIK9IRPT4M848","dez_1b_fix_v3_pilot2","319","74","2","252","74","2","4","1","3","190","0","0","0","0","0,-3,-2,4,-1,-1","105","0","2017-08-17 14:46:10","0","0","0","0"
"AIK9IRPT4M848","dez_1b_fix_v3_pilot2","289","74","2","251","74","2","3","1","3","193","0","0","0","0","-1,-1,3,3,-2,-2","106","0","2017-08-17 14:46:15","0","0","0","0"
"AIK9IRPT4M848","dez_1b_fix_v3_pilot2","322","74","2","140","74","2","1","1","3","194","0","0","0","0","-2,-2,2,1,-5,-5","107","0","2017-08-17 14:46:19","0","0","0","0"
"AIK9IRPT4M848","dez_1b_fix_v3_pilot2","213","74","2","265","74","2","-3","0","4","191","0","0","0","0","0,-1,5,1,-3,-3","108","0","2017-08-17 14:46:23","0","0","0","0"
"AIK9IRPT4M848","dez_1b_fix_v3_pilot2","254","74","2","232","74","2","0","1","3","191","0","0","0","0","-2,0,4,0,-3,-3","109","0","2017-08-17 14:46:28","0","0","0","0"
"AIK9IRPT4M848","dez_1b_fix_v3_pilot2","498","70","1","254","70","1","-4","1","2","187","0","0","0","0","-4,-1,4,-3,-3,-3","110","0","2017-08-17 14:46:32","0","0","0","0"
"AIK9IRPT4M848","dez_1b_fix_v3_pilot2","298","74","2","250","70","1","-3","0","4","184","0","0","0","0","-4,1,4,-3,-3,-3","111","0","2017-08-17 14:46:37","0","0","0","0"
"AIK9IRPT4M848","dez_1b_fix_v3_pilot2","388","74","2","680","70","1","4","1","3","188","0","0","0","0","-4,1,4,-1,-4,-4","112","0","2017-08-17 14:46:42","0","0","0","0"
"AIK9IRPT4M848","dez_1b_fix_v3_pilot2","412","74","2","287","70","1","5","1","3","193","0","0","0","0","-4,0,5,-2,-3,-3","113","0","2017-08-17 14:46:46","0","0","0","0"
"AIK9IRPT4M848","dez_1b_fix_v3_pilot2","301","74","2","263","70","1","3","1","3","196","0","0","0","0","-2,-1,3,-3,-4,-4","114","0","2017-08-17 14:46:51","0","0","0","0"
"AIK9IRPT4M848","dez_1b_fix_v3_pilot2","295","74","2","270","70","1","2","1","3","198","0","0","0","0","0,-3,2,-1,-4,-4","115","0","2017-08-17 14:46:55","0","0","0","0"
"AIK9IRPT4M848","dez_1b_fix_v3_pilot2","366","74","2","293","70","1","3","1","3","201","0","0","0","0","1,-4,3,-5,-5,-5","116","0","2017-08-17 14:47:00","0","0","0","0"
"AIK9IRPT4M848","dez_1b_fix_v3_pilot2","308","74","2","255","70","1","3","1","3","204","0","0","0","0","-1,-3,3,-3,-4,-4","117","0","2017-08-17 14:47:04","0","0","0","0"
"AIK9IRPT4M848","dez_1b_fix_v3_pilot2","445","74","2","286","70","1","-4","0","4","200","0","0","0","0","-2,-2,1,0,-4,-4","118","0","2017-08-17 14:47:09","0","0","0","0"
"AIK9IRPT4M848","dez_1b_fix_v3_pilot2","279","74","2","341","70","1","0","1","3","200","0","0","0","0","-5,-3,0,0,-4,-4","119","0","2017-08-17 14:47:13","0","0","0","0"
"AIK9IRPT4M848","dez_1b_fix_v3_pilot2","297","74","2","212","74","2","2","1","3","202","0","0","0","0","-4,-3,-1,2,-5,-5","120","0","2017-08-17 14:47:17","0","0","0","0"
"AIK9IRPT4M848","dez_1b_fix_v3_pilot2","297","74","2","274","74","2","0","1","3","202","0","0","0","0","-5,-4,-1,0,-3,-3","121","0","2017-08-17 14:47:22","0","0","0","0"
"AIK9IRPT4M848","dez_1b_fix_v3_pilot2","771","70","1","468","74","2","-4","1","2","198","0","0","0","0","-4,-4,1,1,-5,-5","122","0","2017-08-17 14:47:27","0","0","0","0"
"AIK9IRPT4M848","dez_1b_fix_v3_pilot2","332","70","1","218","70","1","-3","1","2","195","0","0","0","0","-3,-3,4,4,-3,-3","123","0","2017-08-17 14:47:31","0","0","0","0"
"AIK9IRPT4M848","dez_1b_fix_v3_pilot2","363","74","2","433","74","2","4","1","3","199","0","0","0","0","-3,-5,5,4,-4,-4","124","0","2017-08-17 14:47:36","0","0","0","0"
"AIK9IRPT4M848","dez_1b_fix_v3_pilot2","417","74","2","636","74","2","-3","0","4","196","0","0","0","0","-5,-3,4,2,-3,-3","125","0","2017-08-17 14:47:41","0","0","0","0"
"AIK9IRPT4M848","dez_1b_fix_v3_pilot2","311","74","2","384","74","2","3","1","3","199","0","0","0","0","-5,0,3,3,-2,-2","126","0","2017-08-17 14:47:45","0","0","0","0"
"AIK9IRPT4M848","dez_1b_fix_v3_pilot2","290","74","2","345","74","2","2","1","3","201","0","0","0","0","-3,1,4,2,-3,-3","127","0","2017-08-17 14:47:50","0","0","0","0"
"AIK9IRPT4M848","dez_1b_fix_v3_pilot2","420","74","2","288","74","2","-1","1","3","200","0","0","0","0","-5,2,2,-1,-5,-5","128","0","2017-08-17 14:47:55","0","0","0","0"
"AIK9IRPT4M848","dez_1b_fix_v3_pilot2","508","74","2","399","70","1","1","1","3","201","0","0","0","0","-5,1,1,1,-2,-2","129","0","2017-08-17 14:47:59","0","0","0","0"
"AIK9IRPT4M848","dez_1b_fix_v3_pilot2","479","74","2","548","70","1","0","1","3","201","0","0","0","0","-3,-2,0,-1,-3,-3","130","0","2017-08-17 14:48:04","0","0","0","0"
"AIK9IRPT4M848","dez_1b_fix_v3_pilot2","397","74","2","241","74","2","-1","1","3","200","0","0","0","0","-1,-2,0,-1,-3,-3","131","0","2017-08-17 14:48:09","0","0","0","0"
"AIK9IRPT4M848","dez_1b_fix_v3_pilot2","391","70","1","505","70","1","0","1","2","200","0","0","0","0","0,-5,0,-2,-3,-3","132","0","2017-08-17 14:48:13","0","0","0","0"
"AIK9IRPT4M848","dez_1b_fix_v3_pilot2","387","70","1","876","70","1","-2","0","4","198","0","0","0","0","2,-1,1,-1,-2,-2","133","0","2017-08-17 14:48:19","0","0","0","0"
"AIK9IRPT4M848","dez_1b_fix_v3_pilot2","381","70","1","233","74","2","-4","0","4","194","0","0","0","0","3,-1,4,0,-4,-4","134","0","2017-08-17 14:48:23","0","0","0","0"
"AIK9IRPT4M848","dez_1b_fix_v3_pilot2","604","70","1","485","70","1","2","1","2","196","0","0","0","0","2,2,3,-1,-4,-4","135","0","2017-08-17 14:48:28","0","0","0","0"
"AIK9IRPT4M848","dez_1b_fix_v3_pilot2","370","70","1","242","70","1","2","1","2","198","0","0","0","0","2,4,4,-1,-3,-3","136","0","2017-08-17 14:48:32","0","0","0","0"
"AIK9IRPT4M848","dez_1b_fix_v3_pilot2","482","70","1","283","70","1","4","1","2","202","0","0","0","0","4,2,4,-2,-4,-4","137","0","2017-08-17 14:48:37","0","0","0","0"
"AIK9IRPT4M848","dez_1b_fix_v3_pilot2","477","70","1","257","70","1","-5","0","4","197","0","0","0","0","3,1,5,-2,-5,-5","138","0","2017-08-17 14:48:42","0","0","0","0"
"AIK9IRPT4M848","dez_1b_fix_v3_pilot2","410","70","1","327","70","1","3","1","2","200","0","0","0","1","3,2,5,-1,-4,-4","139","0","2017-08-17 14:48:51","0","0","0","0"
"AIK9IRPT4M848","dez_1b_fix_v3_pilot2","534","70","1","449","70","1","2","1","2","202","0","0","0","0","2,3,2,-2,-3,-3","140","0","2017-08-17 14:48:56","0","0","0","0"
"AIK9IRPT4M848","dez_1b_fix_v3_pilot2","388","70","1","353","70","1","4","1","2","206","0","0","0","0","4,2,0,0,-4,-4","141","0","2017-08-17 14:49:00","0","0","0","0"
"AIK9IRPT4M848","dez_1b_fix_v3_pilot2","342","70","1","600","70","1","4","1","2","210","0","0","0","0","4,4,4,0,-3,-3","142","0","2017-08-17 14:49:05","0","0","0","0"
"AIK9IRPT4M848","dez_1b_fix_v3_pilot2","444","70","1","297","70","1","3","1","2","213","0","0","0","0","3,3,3,1,-4,-4","143","0","2017-08-17 14:49:10","0","0","0","0"
"AIK9IRPT4M848","dez_1b_fix_v3_pilot2","387","70","1","306","70","1","2","1","2","215","0","0","0","1","2,2,1,-1,-3,-3","144","0","2017-08-17 14:49:19","0","0","0","0"
"AIK9IRPT4M848","dez_1b_fix_v3_pilot2","355","70","1","289","70","1","-1","0","4","214","0","0","0","0","-1,5,3,1,-1,-1","145","0","2017-08-17 14:49:23","0","0","0","0"
"AIK9IRPT4M848","dez_1b_fix_v3_pilot2","411","70","1","394","70","1","-1","1","2","213","0","0","0","0","-1,3,5,1,1,1","146","0","2017-08-17 14:49:28","0","0","0","0"
"AIK9IRPT4M848","dez_1b_fix_v3_pilot2","756","70","1","347","74","2","3","1","2","216","0","0","0","0","0,3,4,2,1,1","147","0","2017-08-17 14:49:33","0","0","0","0"
"AIK9IRPT4M848","dez_1b_fix_v3_pilot2","381","70","1","356","74","2","2","1","2","218","0","0","0","0","0,2,5,2,1,1","148","0","2017-08-17 14:49:37","0","0","0","0"
"AIK9IRPT4M848","dez_1b_fix_v3_pilot2","412","70","1","347","74","2","2","1","2","220","0","0","0","0","-2,2,3,4,-1,-1","149","0","2017-08-17 14:49:42","0","0","0","0"
"AIK9IRPT4M848","dez_1b_fix_v3_pilot2","360","70","1","440","74","2","3","1","2","223","0","0","0","0","-2,3,4,3,-1,-1","150","0","2017-08-17 14:49:47","0","0","0","0"
"AIK9IRPT4M848","dez_1b_fix_v3_pilot2","385","70","1","355","74","2","2","1","2","225","0","0","0","0","-3,2,2,3,1,1","151","0","2017-08-17 14:49:51","0","0","0","0"
"AIK9IRPT4M848","dez_1b_fix_v3_pilot2","407","70","1","475","74","2","3","1","2","228","0","0","0","0","-4,3,3,3,2,2","152","0","2017-08-17 14:49:56","0","0","0","0"
"AIK9IRPT4M848","dez_1b_fix_v3_pilot2","370","70","1","271","74","2","1","1","2","229","0","0","0","0","-2,1,3,5,1,1","153","0","2017-08-17 14:50:00","0","0","0","0"
"AIK9IRPT4M848","dez_1b_fix_v3_pilot2","270","74","2","226","70","1","5","1","3","234","0","0","0","0","-2,0,5,4,1,1","154","0","2017-08-17 14:50:05","0","0","0","0"
"AIK9IRPT4M848","dez_1b_fix_v3_pilot2","364","74","2","382","70","1","5","1","3","239","0","0","0","0","3,1,5,3,2,2","155","0","2017-08-17 14:50:09","0","0","0","0"
"AIK9IRPT4M848","dez_1b_fix_v3_pilot2","312","74","2","285","70","1","3","1","3","242","0","0","0","1","5,0,3,2,2,2","156","0","2017-08-17 14:50:18","0","0","0","0"
"AIK9IRPT4M848","dez_1b_fix_v3_pilot2","327","74","2","293","70","1","0","1","3","242","0","0","0","1","4,0,0,1,2,2","157","0","2017-08-17 14:50:27","0","0","0","0"
"AIK9IRPT4M848","dez_1b_fix_v3_pilot2","640","74","2","265","74","2","0","1","3","242","0","0","0","0","2,-1,-2,0,1,1","158","0","2017-08-17 14:50:32","0","0","0","0"
"AIK9IRPT4M848","dez_1b_fix_v3_pilot2","318","70","1","296","70","1","2","1","2","244","0","0","0","0","2,-2,1,0,-2,-2","159","0","2017-08-17 14:50:36","0","0","0","0"
"AIK9IRPT4M848","dez_1b_fix_v3_pilot2","352","70","1","336","70","1","3","1","2","247","0","0","0","0","3,-1,-1,-3,-1,-1","160","0","2017-08-17 14:50:41","0","0","0","0"
"AIK9IRPT4M848","dez_1b_fix_v3_pilot2","368","70","1","323","70","1","-2","0","4","245","0","0","0","0","2,0,2,-2,-2,-2","161","0","2017-08-17 14:50:45","0","0","0","0"
"AIK9IRPT4M848","dez_1b_fix_v3_pilot2","433","70","1","399","70","1","1","1","2","246","0","0","0","0","1,2,0,-3,-1,-1","162","0","2017-08-17 14:50:50","0","0","0","0"
"AIK9IRPT4M848","dez_1b_fix_v3_pilot2","383","70","1","282","74","2","1","1","2","247","0","0","0","0","-1,1,-1,-2,-1,-1","163","0","2017-08-17 14:50:55","0","0","0","0"
"AIK9IRPT4M848","dez_1b_fix_v3_pilot2","441","70","1","226","70","1","-1","1","2","246","0","0","0","1","-1,-3,-1,-1,-2,-2","164","0","2017-08-17 14:51:04","0","0","0","0"
"AIK9IRPT4M848","dez_1b_fix_v3_pilot2","368","70","1","257","74","2","-4","1","2","242","0","0","0","0","-1,-4,-1,-1,-1,-1","165","0","2017-08-17 14:51:08","0","0","0","0"
"AIK9IRPT4M848","dez_1b_fix_v3_pilot2","338","74","2","341","70","1","-1","1","3","241","0","0","0","0","-2,-1,-1,-3,3,3","166","0","2017-08-17 14:51:13","0","0","0","0"
"AIK9IRPT4M848","dez_1b_fix_v3_pilot2","415","74","2","412","74","2","-3","1","3","238","0","0","0","0","0,0,-3,-3,2,2","167","0","2017-08-17 14:51:17","0","0","0","0"
"AIK9IRPT4M848","dez_1b_fix_v3_pilot2","328","70","1","643","70","1","0","1","2","238","0","0","0","3","0,2,-4,-1,2,2","168","0","2017-08-17 14:51:36","0","0","0","0"
"AIK9IRPT4M848","dez_1b_fix_v3_pilot2","618","70","1","286","74","2","4","1","2","242","0","0","0","0","1,4,-5,0,3,3","169","0","2017-08-17 14:51:40","0","0","0","0"
"AIK9IRPT4M848","dez_1b_fix_v3_pilot2","377","70","1","356","74","2","4","1","2","246","0","0","0","0","-1,4,-4,4,5,5","170","0","2017-08-17 14:51:45","0","0","0","0"
"AIK9IRPT4M848","dez_1b_fix_v3_pilot2","284","70","1","327","74","2","2","1","2","248","0","0","0","0","-1,2,-5,4,4,4","171","0","2017-08-17 14:51:49","0","0","0","0"
"AIK9IRPT4M848","dez_1b_fix_v3_pilot2","555","70","1","404","74","2","3","0","4","251","0","0","0","0","3,3,-2,4,3,3","172","0","2017-08-17 14:51:54","0","0","0","0"
"AIK9IRPT4M848","dez_1b_fix_v3_pilot2","778","70","1","416","74","2","2","1","2","253","0","0","0","0","-1,2,-2,4,3,3","173","0","2017-08-17 14:52:00","0","0","0","0"
"AIK9IRPT4M848","dez_1b_fix_v3_pilot2","387","70","1","398","74","2","3","1","2","256","0","0","0","0","1,3,-4,4,3,3","174","0","2017-08-17 14:52:04","0","0","0","0"
"A2WT6FV92737W6","dez_1b_fix_v3_pilot2","966","74","2","947","74","2","3","1","3","3","1","0","0","0","-1,1,-5,3,0,0","0","0","2017-08-17 14:57:56","0","0","0","0"
"A2WT6FV92737W6","dez_1b_fix_v3_pilot2","764","74","2","721","74","2","4","1","3","7","1","0","0","0","-1,0,-5,4,-1,-1","1","0","2017-08-17 14:58:02","0","0","0","0"
"A2WT6FV92737W6","dez_1b_fix_v3_pilot2","819","74","2","484","70","1","-3","1","3","4","1","0","0","0","-1,2,-3,2,0,0","2","0","2017-08-17 14:58:08","0","0","0","0"
"A2WT6FV92737W6","dez_1b_fix_v3_pilot2","646","70","1","601","74","2","1","1","2","5","1","0","0","0","-2,1,-3,2,1,1","3","0","2017-08-17 14:58:14","0","0","0","0"
"A2WT6FV92737W6","dez_1b_fix_v3_pilot2","516","70","1","693","70","1","-5","1","2","0","1","0","0","0","-5,2,-4,1,1,1","4","0","2017-08-17 14:58:20","0","0","0","0"
"A2WT6FV92737W6","dez_1b_fix_v3_pilot2","472","74","2","739","70","1","2","0","4","2","1","0","0","0","-2,5,-2,0,2,2","5","0","2017-08-17 14:58:26","0","0","0","0"
"A2WT6FV92737W6","dez_1b_fix_v3_pilot2","409","74","2","518","74","2","3","1","3","5","1","0","0","0","-1,4,2,3,4,4","6","0","2017-08-17 14:58:31","0","0","0","0"
"A2WT6FV92737W6","dez_1b_fix_v3_pilot2","319","74","2","329","74","2","4","1","3","9","1","0","0","0","-1,2,2,4,4,4","7","0","2017-08-17 14:58:37","0","0","0","0"
"A2WT6FV92737W6","dez_1b_fix_v3_pilot2","395","74","2","506","70","1","0","1","3","9","1","0","0","0","0,1,0,5,5,5","8","0","2017-08-17 14:58:42","0","0","0","0"
"A2WT6FV92737W6","dez_1b_fix_v3_pilot2","496","74","2","259","74","2","2","1","3","11","1","0","0","0","-4,1,2,2,5,5","9","0","2017-08-17 14:58:48","0","0","0","0"
"A2WT6FV92737W6","dez_1b_fix_v3_pilot2","309","74","2","325","74","2","2","1","3","13","1","0","0","0","-3,1,5,2,3,3","10","0","2017-08-17 14:58:53","0","0","0","0"
"A2WT6FV92737W6","dez_1b_fix_v3_pilot2","415","74","2","289","74","2","4","1","3","17","1","0","0","0","-2,-2,3,4,5,5","11","0","2017-08-17 14:58:58","0","0","0","0"
"A2WT6FV92737W6","dez_1b_fix_v3_pilot2","517","70","1","364","74","2","-2","1","2","15","1","0","0","0","-5,-2,3,3,4,4","12","0","2017-08-17 14:59:04","0","0","0","0"
"A2WT6FV92737W6","dez_1b_fix_v3_pilot2","422","74","2","387","74","2","3","1","3","18","1","0","0","0","2,-2,1,3,1,1","13","0","2017-08-17 14:59:10","0","0","0","0"
"A2WT6FV92737W6","dez_1b_fix_v3_pilot2","292","74","2","317","74","2","2","1","3","20","1","0","0","0","0,-3,0,2,0,0","14","0","2017-08-17 14:59:15","0","0","0","0"
"A2WT6FV92737W6","dez_1b_fix_v3_pilot2","281","74","2","618","70","1","0","0","4","20","1","0","0","0","0,-1,1,4,0,0","15","0","2017-08-17 14:59:21","0","0","0","0"
"A2WT6FV92737W6","dez_1b_fix_v3_pilot2","627","74","2","388","70","1","3","1","3","23","1","0","0","0","-1,-1,3,5,0,0","16","0","2017-08-17 14:59:26","0","0","0","0"
"A2WT6FV92737W6","dez_1b_fix_v3_pilot2","528","74","2","402","70","1","2","1","3","25","1","0","0","0","-2,0,2,4,1,1","17","0","2017-08-17 14:59:32","0","0","0","0"
"A2WT6FV92737W6","dez_1b_fix_v3_pilot2","365","74","2","301","74","2","1","0","4","26","1","0","0","0","-1,-1,1,4,1,1","18","0","2017-08-17 14:59:37","0","0","0","0"
"A2WT6FV92737W6","dez_1b_fix_v3_pilot2","352","74","2","465","74","2","4","1","3","30","1","0","0","0","0,-2,4,4,0,0","19","0","2017-08-17 14:59:43","0","0","0","0"
"A2WT6FV92737W6","dez_1b_fix_v3_pilot2","313","74","2","302","74","2","3","1","3","33","1","0","0","0","-2,0,3,3,-5,-5","20","0","2017-08-17 14:59:48","0","0","0","0"
"A2WT6FV92737W6","dez_1b_fix_v3_pilot2","392","74","2","273","74","2","3","1","3","36","1","0","0","0","1,-1,5,3,-4,-4","21","0","2017-08-17 14:59:54","0","0","0","0"
"A2WT6FV92737W6","dez_1b_fix_v3_pilot2","411","74","2","259","74","2","0","1","3","36","1","0","0","0","1,0,3,0,-3,-3","22","0","2017-08-17 14:59:59","0","0","0","0"
"A2WT6FV92737W6","dez_1b_fix_v3_pilot2","440","74","2","249","70","1","-4","0","4","32","1","0","0","0","0,0,3,-1,-4,-4","23","0","2017-08-17 15:00:04","0","0","0","0"
"A2WT6FV92737W6","dez_1b_fix_v3_pilot2","390","74","2","738","70","1","3","1","3","35","1","0","0","0","-1,4,3,-1,-3,-3","24","0","2017-08-17 15:00:10","0","0","0","0"
"A2WT6FV92737W6","dez_1b_fix_v3_pilot2","504","74","2","290","70","1","-4","0","4","31","1","0","0","0","-2,4,4,2,-4,-4","25","0","2017-08-17 15:00:16","0","0","0","0"
"A2WT6FV92737W6","dez_1b_fix_v3_pilot2","431","74","2","669","74","2","-4","0","4","27","1","0","0","0","2,4,3,0,-4,-4","26","0","2017-08-17 15:00:25","0","0","0","0"
"A2WT6FV92737W6","dez_1b_fix_v3_pilot2","294","74","2","714","74","2","2","1","3","29","1","0","0","0","2,5,3,2,-2,-2","27","0","2017-08-17 15:00:27","0","0","0","0"
"A2WT6FV92737W6","dez_1b_fix_v3_pilot2","285","74","2","558","74","2","4","1","3","33","1","0","0","0","1,3,2,4,-1,-1","28","0","2017-08-17 15:00:33","0","0","0","0"
"A2WT6FV92737W6","dez_1b_fix_v3_pilot2","266","74","2","523","74","2","4","1","3","37","1","0","0","0","1,-1,1,4,-3,-3","29","0","2017-08-17 15:00:38","0","0","0","0"
"A2WT6FV92737W6","dez_1b_fix_v3_pilot2","483","74","2","237","74","2","0","1","3","37","1","0","0","0","2,-1,2,0,-4,-4","30","0","2017-08-17 15:00:44","0","0","0","0"
"A2WT6FV92737W6","dez_1b_fix_v3_pilot2","326","74","2","435","70","1","-1","1","3","36","1","0","0","0","-2,-1,-1,1,-5,-5","31","0","2017-08-17 15:00:49","0","0","0","0"
"A2WT6FV92737W6","dez_1b_fix_v3_pilot2","308","74","2","237","74","2","0","1","3","36","1","0","0","0","-2,-1,-2,0,-5,-5","32","0","2017-08-17 15:00:54","0","0","0","0"
"A2WT6FV92737W6","dez_1b_fix_v3_pilot2","375","70","1","362","74","2","-1","1","2","35","1","0","0","0","-3,-1,-1,-1,-4,-4","33","0","2017-08-17 15:01:00","0","0","0","0"
"A2WT6FV92737W6","dez_1b_fix_v3_pilot2","401","70","1","262","70","1","-4","1","2","31","1","0","0","0","-4,-1,-2,-3,-4,-4","34","0","2017-08-17 15:01:05","0","0","0","0"
"A2WT6FV92737W6","dez_1b_fix_v3_pilot2","407","74","2","234","74","2","-4","1","3","27","1","0","0","0","-4,0,-2,-4,0,0","35","0","2017-08-17 15:01:11","0","0","0","0"
"A2WT6FV92737W6","dez_1b_fix_v3_pilot2","478","74","2","258","70","1","-3","1","3","24","1","0","0","0","-3,-2,-3,-5,0,0","36","0","2017-08-17 15:01:16","0","0","0","0"
"A2WT6FV92737W6","dez_1b_fix_v3_pilot2","328","70","1","346","74","2","2","1","2","26","1","0","0","0","-4,2,-3,-2,1,1","37","0","2017-08-17 15:01:21","0","0","0","0"
"A2WT6FV92737W6","dez_1b_fix_v3_pilot2","387","70","1","261","74","2","-1","1","2","25","1","0","0","0","-3,-1,-2,-4,3,3","38","0","2017-08-17 15:01:27","0","0","0","0"
"A2WT6FV92737W6","dez_1b_fix_v3_pilot2","347","70","1","322","70","1","-4","1","2","21","1","0","0","0","-4,-1,1,-4,4,4","39","0","2017-08-17 15:01:32","0","0","0","0"
"A2WT6FV92737W6","dez_1b_fix_v3_pilot2","424","74","2","360","74","2","4","1","3","24","0","0","0","0","-3,-2,0,4,-3,-3","0","0","2017-08-17 15:03:00","0","0","0","0"
"A2WT6FV92737W6","dez_1b_fix_v3_pilot2","333","74","2","245","74","2","3","1","3","27","0","0","0","0","-4,1,1,3,-1,-1","1","0","2017-08-17 15:03:05","0","0","0","0"
"A2WT6FV92737W6","dez_1b_fix_v3_pilot2","279","74","2","228","74","2","3","1","3","30","0","0","0","0","-4,1,2,3,2,2","2","0","2017-08-17 15:03:09","0","0","0","0"
"A2WT6FV92737W6","dez_1b_fix_v3_pilot2","303","74","2","261","70","1","1","1","3","31","0","0","0","0","-4,-2,1,0,1,1","3","0","2017-08-17 15:03:14","0","0","0","0"
"A2WT6FV92737W6","dez_1b_fix_v3_pilot2","270","74","2","222","74","2","0","1","3","31","0","0","0","0","-3,1,1,0,1,1","4","0","2017-08-17 15:03:18","0","0","0","0"
"A2WT6FV92737W6","dez_1b_fix_v3_pilot2","280","74","2","199","74","2","0","1","3","31","0","0","0","0","-3,1,1,0,1,1","5","0","2017-08-17 15:03:22","0","0","0","0"
"A2WT6FV92737W6","dez_1b_fix_v3_pilot2","268","74","2","230","70","1","1","0","4","32","0","0","0","0","-4,0,2,0,1,1","6","0","2017-08-17 15:03:27","0","0","0","0"
"A2WT6FV92737W6","dez_1b_fix_v3_pilot2","336","70","1","245","74","2","2","0","4","34","0","0","0","0","-3,-2,4,-1,2,2","7","0","2017-08-17 15:03:31","0","0","0","0"
"A2WT6FV92737W6","dez_1b_fix_v3_pilot2","279","70","1","302","74","2","-2","1","2","32","0","0","0","0","-2,-2,2,-2,1,1","8","0","2017-08-17 15:03:36","0","0","0","0"
"A2WT6FV92737W6","dez_1b_fix_v3_pilot2","301","74","2","266","74","2","-2","1","3","30","0","0","0","0","1,-2,0,-2,-1,-1","9","0","2017-08-17 15:03:40","0","0","0","0"
"A2WT6FV92737W6","dez_1b_fix_v3_pilot2","345","74","2","300","70","1","-3","0","4","27","0","0","0","0","-1,-4,1,-2,-3,-3","10","0","2017-08-17 15:03:44","0","0","0","0"
"A2WT6FV92737W6","dez_1b_fix_v3_pilot2","287","74","2","472","70","1","2","1","3","29","0","0","0","0","0,-2,2,-1,-5,-5","11","0","2017-08-17 15:03:49","0","0","0","0"
"A2WT6FV92737W6","dez_1b_fix_v3_pilot2","308","74","2","473","70","1","3","1","3","32","0","0","0","0","0,-2,3,-2,-3,-3","12","0","2017-08-17 15:03:54","0","0","0","0"
"A2WT6FV92737W6","dez_1b_fix_v3_pilot2","370","74","2","381","70","1","1","1","3","33","0","0","0","0","1,-3,1,-2,-4,-4","13","0","2017-08-17 15:03:58","0","0","0","0"
"A2WT6FV92737W6","dez_1b_fix_v3_pilot2","342","74","2","279","70","1","0","1","3","33","0","0","0","0","2,-2,0,-2,-3,-3","14","0","2017-08-17 15:04:03","0","0","0","0"
"A2WT6FV92737W6","dez_1b_fix_v3_pilot2","293","74","2","297","74","2","-2","1","3","31","0","0","0","0","2,-2,-2,-2,-4,-4","15","0","2017-08-17 15:04:07","0","0","0","0"
"A2WT6FV92737W6","dez_1b_fix_v3_pilot2","448","70","1","533","74","2","0","1","2","31","0","0","0","0","2,0,-4,-2,-3,-3","16","0","2017-08-17 15:04:12","0","0","0","0"
"A2WT6FV92737W6","dez_1b_fix_v3_pilot2","501","74","2","307","74","2","-2","1","3","29","0","0","0","0","2,1,-2,-2,-2,-2","17","0","2017-08-17 15:04:17","0","0","0","0"
"A2WT6FV92737W6","dez_1b_fix_v3_pilot2","308","74","2","366","70","1","-3","1","3","26","0","0","0","0","3,-2,-3,-3,-1,-1","18","0","2017-08-17 15:04:21","0","0","0","0"
"A2WT6FV92737W6","dez_1b_fix_v3_pilot2","302","70","1","463","70","1","5","1","2","31","0","0","0","0","5,-4,-1,-5,3,3","19","0","2017-08-17 15:04:26","0","0","0","0"
"A2WT6FV92737W6","dez_1b_fix_v3_pilot2","492","70","1","265","70","1","5","1","2","36","0","0","0","0","5,-2,-2,-5,5,5","20","0","2017-08-17 15:04:31","0","0","0","0"
"A2WT6FV92737W6","dez_1b_fix_v3_pilot2","295","70","1","247","70","1","4","1","2","40","0","0","0","0","4,-1,-2,-4,3,3","21","0","2017-08-17 15:04:35","0","0","0","0"
"A2WT6FV92737W6","dez_1b_fix_v3_pilot2","264","70","1","239","70","1","3","1","2","43","0","0","0","0","3,-2,-1,-3,4,4","22","0","2017-08-17 15:04:39","0","0","0","0"
"A2WT6FV92737W6","dez_1b_fix_v3_pilot2","316","70","1","585","70","1","4","1","2","47","0","0","0","0","4,-5,-3,-4,4,4","23","0","2017-08-17 15:04:44","0","0","0","0"
"A2WT6FV92737W6","dez_1b_fix_v3_pilot2","238","70","1","309","70","1","4","1","2","51","0","0","0","0","4,-3,-4,-5,4,4","24","0","2017-08-17 15:04:48","0","0","0","0"
"A2WT6FV92737W6","dez_1b_fix_v3_pilot2","512","70","1","802","74","2","4","0","4","55","0","0","0","0","1,-1,-2,-5,4,4","25","0","2017-08-17 15:04:54","0","0","0","0"
"A2WT6FV92737W6","dez_1b_fix_v3_pilot2","338","70","1","397","70","1","3","0","4","58","0","0","0","0","2,0,0,-4,3,3","26","0","2017-08-17 15:04:58","0","0","0","0"
"A2WT6FV92737W6","dez_1b_fix_v3_pilot2","279","70","1","310","70","1","1","1","2","59","0","0","0","0","1,0,1,-5,4,4","27","0","2017-08-17 15:05:03","0","0","0","0"
"A2WT6FV92737W6","dez_1b_fix_v3_pilot2","265","70","1","233","70","1","1","1","2","60","0","0","0","0","1,1,1,-4,3,3","28","0","2017-08-17 15:05:07","0","0","0","0"
"A2WT6FV92737W6","dez_1b_fix_v3_pilot2","248","70","1","245","70","1","4","1","2","64","0","0","0","0","4,2,4,-4,4,4","29","0","2017-08-17 15:05:11","0","0","0","0"
"A2WT6FV92737W6","dez_1b_fix_v3_pilot2","263","70","1","261","70","1","4","1","2","68","0","0","0","0","4,1,3,-1,3,3","30","0","2017-08-17 15:05:16","0","0","0","0"
"A2WT6FV92737W6","dez_1b_fix_v3_pilot2","243","70","1","217","70","1","4","1","2","72","0","0","0","0","4,4,2,-4,4,4","31","0","2017-08-17 15:05:20","0","0","0","0"
"A2WT6FV92737W6","dez_1b_fix_v3_pilot2","262","70","1","214","70","1","4","1","2","76","0","0","0","0","4,2,1,-4,3,3","32","0","2017-08-17 15:05:24","0","0","0","0"
"A2WT6FV92737W6","dez_1b_fix_v3_pilot2","273","70","1","237","70","1","3","1","2","79","0","0","0","0","3,1,4,-5,4,4","33","0","2017-08-17 15:05:29","0","0","0","0"
"A2WT6FV92737W6","dez_1b_fix_v3_pilot2","266","70","1","249","70","1","4","1","2","83","0","0","0","0","4,0,5,-5,5,5","34","0","2017-08-17 15:05:33","0","0","0","0"
"A2WT6FV92737W6","dez_1b_fix_v3_pilot2","264","70","1","301","70","1","5","0","4","88","0","0","0","0","5,-1,5,-3,5,5","35","0","2017-08-17 15:05:38","0","0","0","0"
"A2WT6FV92737W6","dez_1b_fix_v3_pilot2","278","70","1","262","70","1","2","0","4","90","0","0","0","0","4,-2,4,-3,2,2","36","0","2017-08-17 15:05:42","0","0","0","0"
"A2WT6FV92737W6","dez_1b_fix_v3_pilot2","315","70","1","329","70","1","3","1","2","93","0","0","0","0","3,-1,4,-4,2,2","37","0","2017-08-17 15:05:47","0","0","0","0"
"A2WT6FV92737W6","dez_1b_fix_v3_pilot2","303","70","1","341","70","1","1","0","4","94","0","0","0","0","3,-2,4,-5,1,1","38","0","2017-08-17 15:05:51","0","0","0","0"
"A2WT6FV92737W6","dez_1b_fix_v3_pilot2","262","70","1","295","70","1","4","1","2","98","0","0","0","0","4,1,2,-4,-2,-2","39","0","2017-08-17 15:05:55","0","0","0","0"
"A2WT6FV92737W6","dez_1b_fix_v3_pilot2","307","70","1","313","70","1","5","1","2","103","0","0","0","0","5,4,5,-3,-2,-2","40","0","2017-08-17 15:06:00","0","0","0","0"
"A2WT6FV92737W6","dez_1b_fix_v3_pilot2","255","70","1","261","70","1","5","1","2","108","0","0","0","0","5,4,4,-5,-1,-1","41","0","2017-08-17 15:06:04","0","0","0","0"
"A2WT6FV92737W6","dez_1b_fix_v3_pilot2","394","70","1","309","70","1","5","1","2","113","0","0","0","0","5,3,4,-4,-1,-1","42","0","2017-08-17 15:06:09","0","0","0","0"
"A2WT6FV92737W6","dez_1b_fix_v3_pilot2","274","70","1","274","70","1","5","1","2","118","0","0","0","0","5,1,3,-1,-1,-1","43","0","2017-08-17 15:06:13","0","0","0","0"
"A2WT6FV92737W6","dez_1b_fix_v3_pilot2","335","70","1","421","70","1","5","1","2","123","0","0","0","0","5,1,4,-3,-1,-1","44","0","2017-08-17 15:06:18","0","0","0","0"
"A2WT6FV92737W6","dez_1b_fix_v3_pilot2","333","70","1","413","70","1","5","1","2","128","0","0","0","0","5,4,3,-2,-3,-3","45","0","2017-08-17 15:06:22","0","0","0","0"
"A2WT6FV92737W6","dez_1b_fix_v3_pilot2","292","70","1","786","70","1","-4","0","4","124","0","0","0","0","2,4,5,-4,-4,-4","46","0","2017-08-17 15:06:27","0","0","0","0"
"A2WT6FV92737W6","dez_1b_fix_v3_pilot2","354","70","1","412","70","1","-1","1","2","123","0","0","0","0","-1,4,5,-4,-4,-4","47","0","2017-08-17 15:06:32","0","0","0","0"
"A2WT6FV92737W6","dez_1b_fix_v3_pilot2","278","74","2","361","74","2","-1","1","3","122","0","0","0","0","-5,5,5,-1,-4,-4","48","0","2017-08-17 15:06:37","0","0","0","0"
"A2WT6FV92737W6","dez_1b_fix_v3_pilot2","284","74","2","349","70","1","4","1","3","126","0","0","0","0","-4,3,4,-2,-4,-4","49","0","2017-08-17 15:06:41","0","0","0","0"
"A2WT6FV92737W6","dez_1b_fix_v3_pilot2","269","74","2","245","70","1","3","1","3","129","0","0","0","0","-3,4,3,-4,-5,-5","50","0","2017-08-17 15:06:45","0","0","0","0"
"A2WT6FV92737W6","dez_1b_fix_v3_pilot2","269","74","2","248","70","1","2","1","3","131","0","0","0","0","-1,2,2,-5,-2,-2","51","0","2017-08-17 15:06:50","0","0","0","0"
"A2WT6FV92737W6","dez_1b_fix_v3_pilot2","234","74","2","246","70","1","1","1","3","132","0","0","0","0","0,5,1,-5,-3,-3","52","0","2017-08-17 15:06:54","0","0","0","0"
"A2WT6FV92737W6","dez_1b_fix_v3_pilot2","263","74","2","485","70","1","0","1","3","132","0","0","0","0","-3,3,0,-4,-3,-3","53","0","2017-08-17 15:06:59","0","0","0","0"
"A2WT6FV92737W6","dez_1b_fix_v3_pilot2","318","74","2","280","70","1","-1","1","3","131","0","0","0","0","-2,1,-1,-3,-4,-4","54","0","2017-08-17 15:07:03","0","0","0","0"
"A2WT6FV92737W6","dez_1b_fix_v3_pilot2","351","70","1","382","70","1","-2","1","2","129","0","0","0","0","-2,2,0,-1,-4,-4","55","0","2017-08-17 15:07:08","0","0","0","0"
"A2WT6FV92737W6","dez_1b_fix_v3_pilot2","319","70","1","277","74","2","3","1","2","132","0","0","0","0","-4,3,0,1,-1,-1","56","0","2017-08-17 15:07:12","0","0","0","0"
"A2WT6FV92737W6","dez_1b_fix_v3_pilot2","309","70","1","262","74","2","1","1","2","133","0","0","0","0","-2,1,0,2,-1,-1","57","0","2017-08-17 15:07:17","0","0","0","0"
"A2WT6FV92737W6","dez_1b_fix_v3_pilot2","256","70","1","239","74","2","4","1","2","137","0","0","0","0","0,4,0,3,-1,-1","58","0","2017-08-17 15:07:21","0","0","0","0"
"A2WT6FV92737W6","dez_1b_fix_v3_pilot2","270","70","1","245","74","2","4","1","2","141","0","0","0","0","-1,4,-1,2,-2,-2","59","0","2017-08-17 15:07:26","0","0","0","0"
"A2WT6FV92737W6","dez_1b_fix_v3_pilot2","284","70","1","256","74","2","4","1","2","145","0","0","0","0","-1,4,1,2,-3,-3","60","0","2017-08-17 15:07:30","0","0","0","0"
"A2WT6FV92737W6","dez_1b_fix_v3_pilot2","254","70","1","254","74","2","2","1","2","147","0","0","0","0","-1,2,3,1,-5,-5","61","0","2017-08-17 15:07:34","0","0","0","0"
"A2WT6FV92737W6","dez_1b_fix_v3_pilot2","287","70","1","254","74","2","-4","0","4","143","0","0","0","0","2,0,2,1,-4,-4","62","0","2017-08-17 15:07:39","0","0","0","0"
"A2WT6FV92737W6","dez_1b_fix_v3_pilot2","311","70","1","353","74","2","2","1","2","145","0","0","0","0","3,2,1,0,-1,-1","63","0","2017-08-17 15:07:43","0","0","0","0"
"A2WT6FV92737W6","dez_1b_fix_v3_pilot2","289","70","1","254","74","2","1","1","2","146","0","0","0","0","4,1,0,-2,-2,-2","64","0","2017-08-17 15:07:48","0","0","0","0"
"A2WT6FV92737W6","dez_1b_fix_v3_pilot2","356","70","1","278","70","1","5","1","2","151","0","0","0","0","5,-1,1,-2,-1,-1","65","0","2017-08-17 15:07:52","0","0","0","0"
"A2WT6FV92737W6","dez_1b_fix_v3_pilot2","318","70","1","249","70","1","2","1","2","153","0","0","0","0","2,-3,2,-3,-1,-1","66","0","2017-08-17 15:07:56","0","0","0","0"
"A2WT6FV92737W6","dez_1b_fix_v3_pilot2","297","70","1","463","74","2","-3","0","4","150","0","0","0","0","5,-1,5,-1,-3,-3","67","0","2017-08-17 15:08:01","0","0","0","0"
"A2WT6FV92737W6","dez_1b_fix_v3_pilot2","303","70","1","206","70","1","5","1","2","155","0","0","0","0","5,0,4,3,-2,-2","68","0","2017-08-17 15:08:05","0","0","0","0"
"A2WT6FV92737W6","dez_1b_fix_v3_pilot2","309","70","1","232","70","1","4","1","2","159","0","0","0","0","4,-1,4,4,-2,-2","69","0","2017-08-17 15:08:10","0","0","0","0"
"A2WT6FV92737W6","dez_1b_fix_v3_pilot2","369","70","1","253","70","1","4","1","2","163","0","0","0","0","4,-3,5,4,-3,-3","70","0","2017-08-17 15:08:14","0","0","0","0"
"A2WT6FV92737W6","dez_1b_fix_v3_pilot2","264","70","1","237","70","1","3","1","2","166","0","0","0","0","3,-1,5,2,-2,-2","71","0","2017-08-17 15:08:19","0","0","0","0"
"A2WT6FV92737W6","dez_1b_fix_v3_pilot2","365","70","1","306","70","1","5","1","2","171","0","0","0","0","5,0,5,2,-4,-4","72","0","2017-08-17 15:08:23","0","0","0","0"
"A2WT6FV92737W6","dez_1b_fix_v3_pilot2","304","70","1","301","70","1","5","1","2","176","0","0","0","0","5,0,4,2,-2,-2","73","0","2017-08-17 15:08:28","0","0","0","0"
"A2WT6FV92737W6","dez_1b_fix_v3_pilot2","280","70","1","278","70","1","4","1","2","180","0","0","0","0","4,0,2,1,-3,-3","74","0","2017-08-17 15:08:32","0","0","0","0"
"A2WT6FV92737W6","dez_1b_fix_v3_pilot2","363","70","1","298","70","1","-4","0","4","176","0","0","0","0","3,1,-1,-1,-4,-4","75","0","2017-08-17 15:08:37","0","0","0","0"
"A2WT6FV92737W6","dez_1b_fix_v3_pilot2","289","70","1","734","74","2","-4","0","4","172","0","0","0","0","0,1,-3,0,-4,-4","76","0","2017-08-17 15:08:41","0","0","0","0"
"A2WT6FV92737W6","dez_1b_fix_v3_pilot2","407","70","1","283","70","1","-2","1","2","170","0","0","0","0","-2,1,-4,0,-3,-3","77","0","2017-08-17 15:08:46","0","0","0","0"
"A2WT6FV92737W6","dez_1b_fix_v3_pilot2","305","74","2","246","74","2","2","1","3","172","0","0","0","0","0,-1,-5,2,-3,-3","78","0","2017-08-17 15:08:50","0","0","0","0"
"A2WT6FV92737W6","dez_1b_fix_v3_pilot2","287","74","2","261","70","1","-2","1","3","170","0","0","0","0","1,-1,-2,3,-1,-1","79","0","2017-08-17 15:08:55","0","0","0","0"
"A2WT6FV92737W6","dez_1b_fix_v3_pilot2","336","70","1","244","74","2","0","1","2","170","0","0","0","0","0,0,2,2,2,2","80","0","2017-08-17 15:08:59","0","0","0","0"
"A2WT6FV92737W6","dez_1b_fix_v3_pilot2","316","70","1","214","70","1","3","0","4","173","0","0","0","0","1,4,4,3,3,3","81","0","2017-08-17 15:09:04","0","0","0","0"
"A2WT6FV92737W6","dez_1b_fix_v3_pilot2","271","70","1","238","70","1","1","1","2","174","0","0","0","0","1,4,4,5,3,3","82","0","2017-08-17 15:09:08","0","0","0","0"
"A2WT6FV92737W6","dez_1b_fix_v3_pilot2","285","74","2","226","74","2","3","0","4","177","0","0","0","0","1,4,5,4,3,3","83","0","2017-08-17 15:09:12","0","0","0","0"
"A2WT6FV92737W6","dez_1b_fix_v3_pilot2","271","74","2","246","74","2","2","1","3","179","0","0","0","0","2,4,3,2,-4,-4","84","0","2017-08-17 15:09:17","0","0","0","0"
"A2WT6FV92737W6","dez_1b_fix_v3_pilot2","255","74","2","230","74","2","3","1","3","182","0","0","0","0","2,3,4,3,-4,-4","85","0","2017-08-17 15:09:21","0","0","0","0"
"A2WT6FV92737W6","dez_1b_fix_v3_pilot2","274","74","2","217","74","2","1","1","3","183","0","0","0","0","2,4,4,1,-3,-3","86","0","2017-08-17 15:09:25","0","0","0","0"
"A2WT6FV92737W6","dez_1b_fix_v3_pilot2","281","74","2","278","70","1","5","1","3","188","0","0","0","0","0,5,5,-2,-3,-3","87","0","2017-08-17 15:09:30","0","0","0","0"
"A2WT6FV92737W6","dez_1b_fix_v3_pilot2","261","74","2","239","70","1","4","1","3","192","0","0","0","0","-1,1,4,-2,-2,-2","88","0","2017-08-17 15:09:34","0","0","0","0"
"A2WT6FV92737W6","dez_1b_fix_v3_pilot2","273","74","2","414","70","1","3","1","3","195","0","0","0","0","0,3,3,0,1,1","89","0","2017-08-17 15:09:39","0","0","0","0"
"A2WT6FV92737W6","dez_1b_fix_v3_pilot2","313","74","2","230","70","1","2","1","3","197","0","0","0","0","2,4,2,2,4,4","90","0","2017-08-17 15:09:43","0","0","0","0"
"A2WT6FV92737W6","dez_1b_fix_v3_pilot2","265","70","1","263","70","1","4","1","2","201","0","0","0","0","4,1,3,0,2,2","91","0","2017-08-17 15:09:48","0","0","0","0"
"A2WT6FV92737W6","dez_1b_fix_v3_pilot2","269","70","1","209","70","1","1","0","4","202","0","0","0","0","3,0,4,0,1,1","92","0","2017-08-17 15:09:52","0","0","0","0"
"A2WT6FV92737W6","dez_1b_fix_v3_pilot2","279","70","1","240","70","1","5","1","2","207","0","0","0","0","5,0,5,-4,2,2","93","0","2017-08-17 15:09:56","0","0","0","0"
"A2WT6FV92737W6","dez_1b_fix_v3_pilot2","294","70","1","287","70","1","4","1","2","211","0","0","0","0","4,1,5,-4,3,3","94","0","2017-08-17 15:10:01","0","0","0","0"
"A2WT6FV92737W6","dez_1b_fix_v3_pilot2","285","70","1","248","70","1","3","1","2","214","0","0","0","0","3,0,5,-4,5,5","95","0","2017-08-17 15:10:05","0","0","0","0"
"A2WT6FV92737W6","dez_1b_fix_v3_pilot2","256","70","1","238","70","1","0","1","2","214","0","0","0","0","0,-1,5,-5,4,4","96","0","2017-08-17 15:10:09","0","0","0","0"
"A2WT6FV92737W6","dez_1b_fix_v3_pilot2","264","70","1","222","74","2","1","1","2","215","0","0","0","0","0,1,4,-1,4,4","97","0","2017-08-17 15:10:14","0","0","0","0"
"A2WT6FV92737W6","dez_1b_fix_v3_pilot2","295","74","2","214","74","2","4","0","4","219","0","0","0","0","-1,-1,4,0,4,4","98","0","2017-08-17 15:10:18","0","0","0","0"
"A2WT6FV92737W6","dez_1b_fix_v3_pilot2","239","74","2","239","74","2","1","0","4","220","0","0","0","0","-4,0,4,-1,1,1","99","0","2017-08-17 15:10:23","0","0","0","0"
"A2WT6FV92737W6","dez_1b_fix_v3_pilot2","314","74","2","230","74","2","0","1","3","220","0","0","0","0","-3,0,4,0,3,3","100","0","2017-08-17 15:10:27","0","0","0","0"
"A2WT6FV92737W6","dez_1b_fix_v3_pilot2","276","74","2","233","70","1","4","1","3","224","0","0","0","0","1,0,4,-3,-2,-2","101","0","2017-08-17 15:10:31","0","0","0","0"
"A2WT6FV92737W6","dez_1b_fix_v3_pilot2","265","74","2","188","70","1","4","1","3","228","0","0","0","0","-1,0,4,-5,-2,-2","102","0","2017-08-17 15:10:36","0","0","0","0"
"A2WT6FV92737W6","dez_1b_fix_v3_pilot2","249","74","2","150","70","1","4","1","3","232","0","0","0","0","-1,-1,4,-3,-1,-1","103","0","2017-08-17 15:10:40","0","0","0","0"
"A2WT6FV92737W6","dez_1b_fix_v3_pilot2","245","74","2","234","70","1","5","1","3","237","0","0","0","0","2,-2,5,-3,-3,-3","104","0","2017-08-17 15:10:44","0","0","0","0"
"A2WT6FV92737W6","dez_1b_fix_v3_pilot2","393","74","2","238","70","1","3","1","3","240","0","0","0","0","1,-1,3,-1,-4,-4","105","0","2017-08-17 15:10:49","0","0","0","0"
"A2WT6FV92737W6","dez_1b_fix_v3_pilot2","425","74","2","237","70","1","2","1","3","242","0","0","0","0","4,0,2,0,-4,-4","106","0","2017-08-17 15:10:53","0","0","0","0"
"A2WT6FV92737W6","dez_1b_fix_v3_pilot2","275","70","1","281","70","1","-4","0","4","238","0","0","0","0","2,-1,1,2,-4,-4","107","0","2017-08-17 15:10:58","0","0","0","0"
"A2WT6FV92737W6","dez_1b_fix_v3_pilot2","296","70","1","351","70","1","2","0","4","240","0","0","0","0","3,-2,1,4,2,2","108","0","2017-08-17 15:11:02","0","0","0","0"
"A2WT6FV92737W6","dez_1b_fix_v3_pilot2","384","70","1","277","70","1","-1","0","4","239","0","0","0","0","-1,-3,3,2,-1,-1","109","0","2017-08-17 15:11:07","0","0","0","0"
"A2WT6FV92737W6","dez_1b_fix_v3_pilot2","267","70","1","409","70","1","0","1","2","239","0","0","0","0","0,-4,4,3,-5,-5","110","0","2017-08-17 15:11:11","0","0","0","0"
"A2WT6FV92737W6","dez_1b_fix_v3_pilot2","265","70","1","239","74","2","0","1","2","239","0","0","0","0","-2,0,3,4,-2,-2","111","0","2017-08-17 15:11:16","0","0","0","0"
"A2WT6FV92737W6","dez_1b_fix_v3_pilot2","286","74","2","206","74","2","-1","0","4","238","0","0","0","0","-1,-1,4,4,-1,-1","112","0","2017-08-17 15:11:20","0","0","0","0"
"A2WT6FV92737W6","dez_1b_fix_v3_pilot2","270","74","2","201","74","2","0","1","3","238","0","0","0","0","0,1,2,0,-1,-1","113","0","2017-08-17 15:11:24","0","0","0","0"
"A2WT6FV92737W6","dez_1b_fix_v3_pilot2","250","74","2","204","70","1","2","1","3","240","0","0","0","0","1,0,2,1,-5,-5","114","0","2017-08-17 15:11:29","0","0","0","0"
"A2WT6FV92737W6","dez_1b_fix_v3_pilot2","249","74","2","303","70","1","2","1","3","242","0","0","0","0","1,2,2,-1,-4,-4","115","0","2017-08-17 15:11:33","0","0","0","0"
"A2WT6FV92737W6","dez_1b_fix_v3_pilot2","140","74","2","225","70","1","2","1","3","244","0","0","0","0","1,1,2,0,-4,-4","116","0","2017-08-17 15:11:37","0","0","0","0"
"A2WT6FV92737W6","dez_1b_fix_v3_pilot2","249","74","2","188","70","1","1","1","3","245","0","0","0","0","1,-1,1,-1,-4,-4","117","0","2017-08-17 15:11:41","0","0","0","0"
"A2WT6FV92737W6","dez_1b_fix_v3_pilot2","280","70","1","254","70","1","1","1","2","246","0","0","0","0","1,-2,1,-1,-5,-5","118","0","2017-08-17 15:11:46","0","0","0","0"
"A2WT6FV92737W6","dez_1b_fix_v3_pilot2","237","70","1","185","70","1","1","1","2","247","0","0","0","0","1,-3,0,-1,-4,-4","119","0","2017-08-17 15:11:50","0","0","0","0"
"A2WT6FV92737W6","dez_1b_fix_v3_pilot2","248","70","1","231","74","2","-3","1","2","244","0","0","0","0","0,-3,2,1,-3,-3","120","0","2017-08-17 15:11:54","0","0","0","0"
"A2WT6FV92737W6","dez_1b_fix_v3_pilot2","255","70","1","214","70","1","2","1","2","246","0","0","0","0","2,-5,-1,0,-4,-4","121","0","2017-08-17 15:11:59","0","0","0","0"
"A2WT6FV92737W6","dez_1b_fix_v3_pilot2","236","70","1","153","70","1","3","1","2","249","0","0","0","0","3,-5,0,1,-4,-4","122","0","2017-08-17 15:12:03","0","0","0","0"
"A2WT6FV92737W6","dez_1b_fix_v3_pilot2","320","70","1","205","70","1","3","0","4","252","0","0","0","0","5,-3,0,1,3,3","123","0","2017-08-17 15:12:07","0","0","0","0"
"A2WT6FV92737W6","dez_1b_fix_v3_pilot2","263","70","1","238","70","1","3","1","2","255","0","0","0","0","3,-4,1,2,4,4","124","0","2017-08-17 15:12:12","0","0","0","0"
"A2WT6FV92737W6","dez_1b_fix_v3_pilot2","644","70","1","265","70","1","0","1","2","255","0","0","0","0","0,-3,3,1,4,4","125","0","2017-08-17 15:12:17","0","0","0","0"
"A2WT6FV92737W6","dez_1b_fix_v3_pilot2","296","74","2","238","70","1","4","1","3","259","0","0","0","0","1,0,4,1,2,2","126","0","2017-08-17 15:12:21","0","0","0","0"
