"subject","version","rt1","key1","Action1","rt2","key2","Action2","Re","common","S2","score","practice","reverse_mapping_1","reverse_mapping_2","timeouts","vals","trial_index","time_elapsed","stamp","rews1a1","rews1a2","rews2a1","rews2a2"
"ALSJ5JQPC3A82","dez_1b_fix_v3_pilot1","18571","74","2","654","74","2","2","0","4","2","1","0","0","0","2,-2,5,0,2,2","0","0","2017-08-16 21:13:31","0","0","0","0"
"ALSJ5JQPC3A82","dez_1b_fix_v3_pilot1","82","74","2","956","74","2","2","1","3","4","1","0","0","0","3,-2,4,2,1,1","1","0","2017-08-16 21:13:38","0","0","0","0"
"ALSJ5JQPC3A82","dez_1b_fix_v3_pilot1","391","74","2","387","74","2","3","0","4","7","1","0","0","0","4,-3,4,3,3,3","2","0","2017-08-16 21:13:44","0","0","0","0"
"ALSJ5JQPC3A82","dez_1b_fix_v3_pilot1","248","74","2","331","74","2","3","1","3","10","1","0","0","0","3,-2,2,3,3,3","3","0","2017-08-16 21:13:50","0","0","0","0"
"ALSJ5JQPC3A82","dez_1b_fix_v3_pilot1","404","70","1","342","70","1","1","1","2","11","1","0","0","0","1,-1,4,4,3,3","4","0","2017-08-16 21:13:57","0","0","0","0"
"ALSJ5JQPC3A82","dez_1b_fix_v3_pilot1","10","74","2","387","74","2","4","1","3","15","1","0","0","0","3,0,4,4,1,1","5","0","2017-08-16 21:14:03","0","0","0","0"
"A3EJ44J2ZNRMDA","dez_1b_fix_v3_pilot1","1609","70","1","1711","70","1","1","1","2","1","1","0","0","0","1,-4,4,-4,-4,-4","0","0","2017-08-16 21:14:07","0","0","0","0"
"ALSJ5JQPC3A82","dez_1b_fix_v3_pilot1","191","74","2","252","74","2","3","1","3","18","1","0","0","0","2,0,3,3,1,1","6","0","2017-08-16 21:14:08","0","0","0","0"
"A3EJ44J2ZNRMDA","dez_1b_fix_v3_pilot1","815","70","1","1189","74","2","-3","1","2","-2","1","0","0","0","5,-3,3,-3,-1,-1","1","0","2017-08-16 21:14:15","0","0","0","0"
"ALSJ5JQPC3A82","dez_1b_fix_v3_pilot1","2227","74","2","320","74","2","4","1","3","22","1","0","0","0","1,0,3,4,-1,-1","7","0","2017-08-16 21:14:17","0","0","0","0"
"A3EJ44J2ZNRMDA","dez_1b_fix_v3_pilot1","617","74","2","883","70","1","5","1","3","3","1","0","0","0","5,-3,5,-1,-2,-2","2","0","2017-08-16 21:14:22","0","0","0","0"
"A3EJ44J2ZNRMDA","dez_1b_fix_v3_pilot1","822","74","2","359","70","1","4","1","3","7","1","0","0","0","4,-3,4,0,0,0","3","0","2017-08-16 21:14:28","0","0","0","0"
"ALSJ5JQPC3A82","dez_1b_fix_v3_pilot1","12397","74","2","320","74","2","5","1","3","27","1","0","0","0","4,1,2,5,1,1","8","0","2017-08-16 21:14:35","0","0","0","0"
"A3EJ44J2ZNRMDA","dez_1b_fix_v3_pilot1","435","74","2","481","70","1","4","1","3","11","1","0","0","0","3,1,4,0,0,0","4","0","2017-08-16 21:14:35","0","0","0","0"
"A3EJ44J2ZNRMDA","dez_1b_fix_v3_pilot1","590","74","2","578","70","1","5","1","3","16","1","0","0","0","2,1,5,3,-1,-1","5","0","2017-08-16 21:14:42","0","0","0","0"
"A3EJ44J2ZNRMDA","dez_1b_fix_v3_pilot1","410","74","2","421","70","1","0","1","3","16","1","0","0","0","5,2,0,4,2,2","6","0","2017-08-16 21:14:48","0","0","0","0"
"ALSJ5JQPC3A82","dez_1b_fix_v3_pilot1","8382","74","2","622","74","2","4","1","3","31","1","0","0","0","3,0,0,4,1,1","9","0","2017-08-16 21:14:49","0","0","0","0"
"A3EJ44J2ZNRMDA","dez_1b_fix_v3_pilot1","366","74","2","368","70","1","-1","1","3","15","1","0","0","0","1,2,-1,5,0,0","7","0","2017-08-16 21:14:54","0","0","0","0"
"A3EJ44J2ZNRMDA","dez_1b_fix_v3_pilot1","461","74","2","913","74","2","5","1","3","20","1","0","0","0","0,3,-2,5,-2,-2","8","0","2017-08-16 21:15:01","0","0","0","0"
"A3EJ44J2ZNRMDA","dez_1b_fix_v3_pilot1","813","74","2","504","74","2","4","1","3","24","1","0","0","0","-2,5,-1,4,-3,-3","9","0","2017-08-16 21:15:08","0","0","0","0"
"ALSJ5JQPC3A82","dez_1b_fix_v3_pilot1","393","74","2","18679","74","2","4","1","3","35","1","0","0","0","0,1,2,4,1,1","10","0","2017-08-16 21:15:14","0","0","0","0"
"A3EJ44J2ZNRMDA","dez_1b_fix_v3_pilot1","499","74","2","565","74","2","4","1","3","28","1","0","0","0","-1,5,-2,4,-3,-3","10","0","2017-08-16 21:15:14","0","0","0","0"
"ALSJ5JQPC3A82","dez_1b_fix_v3_pilot1","517","74","2","410","74","2","4","1","3","39","1","0","0","0","-1,2,2,4,0,0","11","0","2017-08-16 21:15:20","0","0","0","0"
"A3EJ44J2ZNRMDA","dez_1b_fix_v3_pilot1","560","74","2","764","74","2","4","1","3","32","1","0","0","0","0,4,-3,4,-1,-1","11","0","2017-08-16 21:15:21","0","0","0","0"
"A3EJ44J2ZNRMDA","dez_1b_fix_v3_pilot1","396","74","2","701","74","2","4","1","3","36","1","0","0","0","2,3,1,4,-1,-1","12","0","2017-08-16 21:15:28","0","0","0","0"
"A3EJ44J2ZNRMDA","dez_1b_fix_v3_pilot1","508","74","2","345","74","2","4","1","3","40","1","0","0","0","2,2,1,4,-2,-2","13","0","2017-08-16 21:15:34","0","0","0","0"
"A3EJ44J2ZNRMDA","dez_1b_fix_v3_pilot1","381","74","2","346","74","2","2","1","3","42","1","0","0","0","2,4,1,2,-4,-4","14","0","2017-08-16 21:15:41","0","0","0","0"
"ALSJ5JQPC3A82","dez_1b_fix_v3_pilot1","3790","74","2","12740","74","2","5","1","3","44","1","0","0","0","-4,1,3,5,2,2","12","0","2017-08-16 21:15:42","0","0","0","0"
"A3EJ44J2ZNRMDA","dez_1b_fix_v3_pilot1","405","74","2","630","70","1","0","1","3","42","1","0","0","0","0,3,0,4,-4,-4","15","0","2017-08-16 21:15:47","0","0","0","0"
"ALSJ5JQPC3A82","dez_1b_fix_v3_pilot1","584","74","2","522","74","2","3","1","3","47","1","0","0","0","-3,5,4,3,0,0","13","0","2017-08-16 21:15:49","0","0","0","0"
"A3EJ44J2ZNRMDA","dez_1b_fix_v3_pilot1","555","74","2","475","74","2","0","0","4","42","1","0","0","0","-1,4,1,4,0,0","16","0","2017-08-16 21:15:54","0","0","0","0"
"ALSJ5JQPC3A82","dez_1b_fix_v3_pilot1","494","74","2","341","74","2","2","1","3","49","1","0","0","0","-2,5,3,2,2,2","14","0","2017-08-16 21:15:55","0","0","0","0"
"A3EJ44J2ZNRMDA","dez_1b_fix_v3_pilot1","772","74","2","629","74","2","3","1","3","45","1","0","0","0","2,1,-1,3,0,0","17","0","2017-08-16 21:16:01","0","0","0","0"
"ALSJ5JQPC3A82","dez_1b_fix_v3_pilot1","439","70","1","353","70","1","2","1","2","51","1","0","0","0","2,5,3,3,4,4","15","0","2017-08-16 21:16:02","0","0","0","0"
"A3EJ44J2ZNRMDA","dez_1b_fix_v3_pilot1","379","74","2","441","74","2","3","1","3","48","1","0","0","0","3,3,-1,3,0,0","18","0","2017-08-16 21:16:07","0","0","0","0"
"ALSJ5JQPC3A82","dez_1b_fix_v3_pilot1","5814","70","1","368","70","1","1","1","2","52","1","0","0","0","1,5,2,0,4,4","16","0","2017-08-16 21:16:13","0","0","0","0"
"A3EJ44J2ZNRMDA","dez_1b_fix_v3_pilot1","396","74","2","588","74","2","-1","1","3","47","1","0","0","0","2,3,-1,-1,4,4","19","0","2017-08-16 21:16:13","0","0","0","0"
"ALSJ5JQPC3A82","dez_1b_fix_v3_pilot1","349","70","1","274","70","1","-2","1","2","50","1","0","0","0","-2,3,4,0,5,5","17","0","2017-08-16 21:16:19","0","0","0","0"
"A3EJ44J2ZNRMDA","dez_1b_fix_v3_pilot1","370","70","1","511","70","1","3","1","2","50","1","0","0","0","3,5,-2,-2,5,5","20","0","2017-08-16 21:16:20","0","0","0","0"
"ALSJ5JQPC3A82","dez_1b_fix_v3_pilot1","370","74","2","285","74","2","-2","1","3","48","1","0","0","0","0,2,3,-2,4,4","18","0","2017-08-16 21:16:26","0","0","0","0"
"A3EJ44J2ZNRMDA","dez_1b_fix_v3_pilot1","443","70","1","459","70","1","4","0","4","54","1","0","0","0","0,4,-4,-3,4,4","21","0","2017-08-16 21:16:26","0","0","0","0"
"ALSJ5JQPC3A82","dez_1b_fix_v3_pilot1","337","74","2","331","74","2","-2","1","3","46","1","0","0","0","0,0,2,-2,2,2","19","0","2017-08-16 21:16:32","0","0","0","0"
"A3EJ44J2ZNRMDA","dez_1b_fix_v3_pilot1","412","70","1","477","70","1","0","1","2","54","1","0","0","0","0,3,-3,1,5,5","22","0","2017-08-16 21:16:33","0","0","0","0"
"ALSJ5JQPC3A82","dez_1b_fix_v3_pilot1","72","70","1","933","70","1","0","1","2","46","1","0","0","0","0,1,2,-1,2,2","20","0","2017-08-16 21:16:38","0","0","0","0"
"A3EJ44J2ZNRMDA","dez_1b_fix_v3_pilot1","398","70","1","543","74","2","2","1","2","56","1","0","0","0","0,2,-3,1,2,2","23","0","2017-08-16 21:16:39","0","0","0","0"
"ALSJ5JQPC3A82","dez_1b_fix_v3_pilot1","380","70","1","252","74","2","-1","1","2","45","1","0","0","0","0,-1,4,-1,0,0","21","0","2017-08-16 21:16:44","0","0","0","0"
"A3EJ44J2ZNRMDA","dez_1b_fix_v3_pilot1","400","70","1","445","74","2","-1","1","2","55","1","0","0","0","0,-1,-3,3,1,1","24","0","2017-08-16 21:16:45","0","0","0","0"
"ALSJ5JQPC3A82","dez_1b_fix_v3_pilot1","304","70","1","83","70","1","-1","1","2","44","1","0","0","0","-1,2,5,-2,-1,-1","22","0","2017-08-16 21:16:50","0","0","0","0"
"A3EJ44J2ZNRMDA","dez_1b_fix_v3_pilot1","402","74","2","466","70","1","-4","1","3","51","1","0","0","0","-2,-2,-4,2,2,2","25","0","2017-08-16 21:16:52","0","0","0","0"
"ALSJ5JQPC3A82","dez_1b_fix_v3_pilot1","22","74","2","253","74","2","-2","1","3","42","1","0","0","0","1,-2,4,-2,-2,-2","23","0","2017-08-16 21:16:56","0","0","0","0"
"A3EJ44J2ZNRMDA","dez_1b_fix_v3_pilot1","544","74","2","435","74","2","0","0","4","51","1","0","0","0","-2,1,-4,2,0,0","26","0","2017-08-16 21:16:58","0","0","0","0"
"ALSJ5JQPC3A82","dez_1b_fix_v3_pilot1","336","74","2","94","74","2","2","1","3","44","1","0","0","0","3,-4,1,2,-3,-3","24","0","2017-08-16 21:17:02","0","0","0","0"
"A3EJ44J2ZNRMDA","dez_1b_fix_v3_pilot1","422","74","2","1080","74","2","4","1","3","55","1","0","0","0","-1,0,-2,4,0,0","27","0","2017-08-16 21:17:05","0","0","0","0"
"ALSJ5JQPC3A82","dez_1b_fix_v3_pilot1","404","74","2","173","74","2","2","1","3","46","1","0","0","0","3,-5,0,2,1,1","25","0","2017-08-16 21:17:08","0","0","0","0"
"A3EJ44J2ZNRMDA","dez_1b_fix_v3_pilot1","461","74","2","418","74","2","0","0","4","55","1","0","0","0","1,-1,-3,3,0,0","28","0","2017-08-16 21:17:12","0","0","0","0"
"ALSJ5JQPC3A82","dez_1b_fix_v3_pilot1","832","74","2","128","74","2","0","1","3","46","1","0","0","0","2,-5,4,0,3,3","26","0","2017-08-16 21:17:15","0","0","0","0"
"A3EJ44J2ZNRMDA","dez_1b_fix_v3_pilot1","592","74","2","659","74","2","4","1","3","59","1","0","0","0","1,-5,-5,4,-3,-3","29","0","2017-08-16 21:17:18","0","0","0","0"
"ALSJ5JQPC3A82","dez_1b_fix_v3_pilot1","22","74","2","274","74","2","2","1","3","48","1","0","0","0","3,-4,4,2,1,1","27","0","2017-08-16 21:17:20","0","0","0","0"
"A3EJ44J2ZNRMDA","dez_1b_fix_v3_pilot1","473","74","2","1248","70","1","-1","0","4","58","1","0","0","0","1,-4,-4,3,-1,-1","30","0","2017-08-16 21:17:26","0","0","0","0"
"ALSJ5JQPC3A82","dez_1b_fix_v3_pilot1","596","74","2","1141","74","2","0","1","3","48","1","0","0","0","3,-4,0,0,-2,-2","28","0","2017-08-16 21:17:28","0","0","0","0"
"A3EJ44J2ZNRMDA","dez_1b_fix_v3_pilot1","521","74","2","860","74","2","4","1","3","62","1","0","0","0","2,-4,-3,4,2,2","31","0","2017-08-16 21:17:33","0","0","0","0"
"ALSJ5JQPC3A82","dez_1b_fix_v3_pilot1","248","74","2","433","74","2","-4","1","3","44","1","0","0","0","5,-3,-2,-4,0,0","29","0","2017-08-16 21:17:34","0","0","0","0"
"A3EJ44J2ZNRMDA","dez_1b_fix_v3_pilot1","384","74","2","704","74","2","3","1","3","65","1","0","0","0","4,-2,0,3,-1,-1","32","0","2017-08-16 21:17:39","0","0","0","0"
"ALSJ5JQPC3A82","dez_1b_fix_v3_pilot1","169","74","2","208","74","2","-4","1","3","40","1","0","0","0","4,-4,-5,-4,2,2","30","0","2017-08-16 21:17:40","0","0","0","0"
"A3EJ44J2ZNRMDA","dez_1b_fix_v3_pilot1","421","74","2","589","74","2","-2","0","4","63","1","0","0","0","3,-3,-3,5,-2,-2","33","0","2017-08-16 21:17:46","0","0","0","0"
"ALSJ5JQPC3A82","dez_1b_fix_v3_pilot1","619","74","2","634","74","2","-5","1","3","35","1","0","0","0","2,-4,-4,-5,3,3","31","0","2017-08-16 21:17:46","0","0","0","0"
"A3EJ44J2ZNRMDA","dez_1b_fix_v3_pilot1","531","74","2","785","74","2","5","1","3","68","1","0","0","0","2,-3,-5,5,-4,-4","34","0","2017-08-16 21:17:53","0","0","0","0"
"A3EJ44J2ZNRMDA","dez_1b_fix_v3_pilot1","513","74","2","405","74","2","3","1","3","71","1","0","0","0","3,-3,-4,3,-5,-5","35","0","2017-08-16 21:17:59","0","0","0","0"
"ALSJ5JQPC3A82","dez_1b_fix_v3_pilot1","7952","70","1","679","70","1","3","0","4","38","1","0","0","0","3,-4,-4,-5,3,3","32","0","2017-08-16 21:18:01","0","0","0","0"
"A3EJ44J2ZNRMDA","dez_1b_fix_v3_pilot1","503","74","2","526","74","2","4","1","3","75","1","0","0","0","3,-4,-3,4,-3,-3","36","0","2017-08-16 21:18:05","0","0","0","0"
"ALSJ5JQPC3A82","dez_1b_fix_v3_pilot1","135","70","1","84","70","1","1","1","2","39","1","0","0","0","1,-5,-3,-4,5,5","33","0","2017-08-16 21:18:06","0","0","0","0"
"A3EJ44J2ZNRMDA","dez_1b_fix_v3_pilot1","457","74","2","345","74","2","3","1","3","78","1","0","0","0","4,-4,0,3,-4,-4","37","0","2017-08-16 21:18:12","0","0","0","0"
"ALSJ5JQPC3A82","dez_1b_fix_v3_pilot1","349","74","2","241","74","2","2","0","4","41","1","0","0","0","4,-4,-4,-4,2,2","34","0","2017-08-16 21:18:12","0","0","0","0"
"ALSJ5JQPC3A82","dez_1b_fix_v3_pilot1","1","70","1","150","70","1","2","0","4","43","1","0","0","0","1,-3,-5,-4,2,2","35","0","2017-08-16 21:18:18","0","0","0","0"
"A3EJ44J2ZNRMDA","dez_1b_fix_v3_pilot1","340","74","2","463","74","2","0","1","3","78","1","0","0","0","2,-2,0,0,-4,-4","38","0","2017-08-16 21:18:18","0","0","0","0"
"A3EJ44J2ZNRMDA","dez_1b_fix_v3_pilot1","870","74","2","354","70","1","-2","1","3","76","1","0","0","0","3,0,-2,-2,-4,-4","39","0","2017-08-16 21:18:25","0","0","0","0"
"ALSJ5JQPC3A82","dez_1b_fix_v3_pilot1","619","74","2","1073","74","2","-1","1","3","42","1","0","0","0","4,-5,-2,-1,5,5","36","0","2017-08-16 21:18:25","0","0","0","0"
"ALSJ5JQPC3A82","dez_1b_fix_v3_pilot1","1035","74","2","399","74","2","4","0","4","46","1","0","0","0","3,-4,-3,0,4,4","37","0","2017-08-16 21:18:32","0","0","0","0"
"ALSJ5JQPC3A82","dez_1b_fix_v3_pilot1","168","70","1","297","70","1","2","1","2","48","1","0","0","0","2,-3,-5,1,3,3","38","0","2017-08-16 21:18:38","0","0","0","0"
"ALSJ5JQPC3A82","dez_1b_fix_v3_pilot1","135","70","1","196","70","1","0","1","2","48","1","0","0","0","0,-5,-3,-1,2,2","39","0","2017-08-16 21:18:44","0","0","0","0"
"ALSJ5JQPC3A82","dez_1b_fix_v3_pilot1","617","70","1","272","70","1","-3","1","2","17","0","0","0","0","-3,4,-3,3,-4,-4","0","0","2017-08-16 21:19:14","0","0","0","0"
"ALSJ5JQPC3A82","dez_1b_fix_v3_pilot1","198","74","2","307","74","2","-4","0","4","13","0","0","0","0","-1,1,-3,5,-4,-4","1","0","2017-08-16 21:19:20","0","0","0","0"
"ALSJ5JQPC3A82","dez_1b_fix_v3_pilot1","231","74","2","295","74","2","4","1","3","17","0","0","0","0","-1,2,0,4,-5,-5","2","0","2017-08-16 21:19:25","0","0","0","0"
"ALSJ5JQPC3A82","dez_1b_fix_v3_pilot1","6","74","2","59","74","2","5","1","3","22","0","0","0","0","-3,3,1,5,-4,-4","3","0","2017-08-16 21:19:29","0","0","0","0"
"ALSJ5JQPC3A82","dez_1b_fix_v3_pilot1","268","74","2","273","74","2","5","1","3","27","0","0","0","0","-2,4,1,5,-4,-4","4","0","2017-08-16 21:19:35","0","0","0","0"
"ALSJ5JQPC3A82","dez_1b_fix_v3_pilot1","344","70","1","442","70","1","1","1","2","28","0","0","0","0","1,5,1,5,-4,-4","5","0","2017-08-16 21:19:40","0","0","0","0"
"ALSJ5JQPC3A82","dez_1b_fix_v3_pilot1","885","70","1","37","70","1","2","1","2","30","0","0","0","0","2,3,4,4,-3,-3","6","0","2017-08-16 21:19:46","0","0","0","0"
"ALSJ5JQPC3A82","dez_1b_fix_v3_pilot1","243","70","1","285","70","1","0","1","2","30","0","0","0","0","0,1,4,0,-3,-3","7","0","2017-08-16 21:19:51","0","0","0","0"
"ALSJ5JQPC3A82","dez_1b_fix_v3_pilot1","155","74","2","150","74","2","3","1","3","33","0","0","0","0","-3,4,4,3,-5,-5","8","0","2017-08-16 21:19:56","0","0","0","0"
"ALSJ5JQPC3A82","dez_1b_fix_v3_pilot1","244","74","2","104","74","2","3","1","3","36","0","0","0","0","-2,4,4,3,-3,-3","9","0","2017-08-16 21:20:01","0","0","0","0"
"ALSJ5JQPC3A82","dez_1b_fix_v3_pilot1","209","74","2","262","74","2","-2","0","4","34","0","0","0","0","-1,3,5,3,-2,-2","10","0","2017-08-16 21:20:06","0","0","0","0"
"ALSJ5JQPC3A82","dez_1b_fix_v3_pilot1","122","74","2","150","74","2","5","1","3","39","0","0","0","0","-3,4,5,5,-1,-1","11","0","2017-08-16 21:20:11","0","0","0","0"
"ALSJ5JQPC3A82","dez_1b_fix_v3_pilot1","109","74","2","82","74","2","4","1","3","43","0","0","0","0","-3,5,2,4,-3,-3","12","0","2017-08-16 21:20:16","0","0","0","0"
"ALSJ5JQPC3A82","dez_1b_fix_v3_pilot1","121","74","2","206","74","2","3","1","3","46","0","0","0","0","-5,4,2,3,-3,-3","13","0","2017-08-16 21:20:21","0","0","0","0"
"ALSJ5JQPC3A82","dez_1b_fix_v3_pilot1","64","74","2","205","74","2","2","1","3","48","0","0","0","0","-2,3,5,2,1,1","14","0","2017-08-16 21:20:26","0","0","0","0"
"ALSJ5JQPC3A82","dez_1b_fix_v3_pilot1","244","74","2","194","74","2","-1","1","3","47","0","0","0","0","-4,2,3,-1,3,3","15","0","2017-08-16 21:20:31","0","0","0","0"
"ALSJ5JQPC3A82","dez_1b_fix_v3_pilot1","167","74","2","195","74","2","0","1","3","47","0","0","0","0","-3,2,3,0,4,4","16","0","2017-08-16 21:20:36","0","0","0","0"
"ALSJ5JQPC3A82","dez_1b_fix_v3_pilot1","234","70","1","465","70","1","5","0","4","52","0","0","0","0","-4,2,1,2,5,5","17","0","2017-08-16 21:20:41","0","0","0","0"
"ALSJ5JQPC3A82","dez_1b_fix_v3_pilot1","199","70","1","307","70","1","-4","1","2","48","0","0","0","0","-4,3,-2,-2,5,5","18","0","2017-08-16 21:20:46","0","0","0","0"
"ALSJ5JQPC3A82","dez_1b_fix_v3_pilot1","53","74","2","161","74","2","2","0","4","50","0","0","0","0","-4,2,2,-2,2,2","19","0","2017-08-16 21:20:51","0","0","0","0"
"ALSJ5JQPC3A82","dez_1b_fix_v3_pilot1","43","74","2","105","74","2","-3","1","3","47","0","0","0","0","-4,2,2,-3,4,4","20","0","2017-08-16 21:20:56","0","0","0","0"
"ALSJ5JQPC3A82","dez_1b_fix_v3_pilot1","165","74","2","116","74","2","-4","1","3","43","0","0","0","0","-3,2,4,-4,2,2","21","0","2017-08-16 21:21:01","0","0","0","0"
"ALSJ5JQPC3A82","dez_1b_fix_v3_pilot1","188","74","2","161","74","2","-3","0","4","40","0","0","0","0","-3,1,5,-4,-3,-3","22","0","2017-08-16 21:21:06","0","0","0","0"
"ALSJ5JQPC3A82","dez_1b_fix_v3_pilot1","323","70","1","307","70","1","-3","1","2","37","0","0","0","0","-3,-2,3,-4,-5,-5","23","0","2017-08-16 21:21:11","0","0","0","0"
"ALSJ5JQPC3A82","dez_1b_fix_v3_pilot1","503","74","2","644","74","2","-2","1","3","35","0","0","0","0","-4,-3,1,-2,-2,-2","24","0","2017-08-16 21:21:17","0","0","0","0"
"ALSJ5JQPC3A82","dez_1b_fix_v3_pilot1","266","74","2","296","74","2","-4","1","3","31","0","0","0","0","-5,-2,-1,-4,-2,-2","25","0","2017-08-16 21:21:22","0","0","0","0"
"ALSJ5JQPC3A82","dez_1b_fix_v3_pilot1","86","70","1","251","70","1","-4","1","2","27","0","0","0","0","-4,-3,0,-2,-4,-4","26","0","2017-08-16 21:21:27","0","0","0","0"
"ALSJ5JQPC3A82","dez_1b_fix_v3_pilot1","470","74","2","285","74","2","-4","1","3","23","0","0","0","0","-4,-3,0,-4,-5,-5","27","0","2017-08-16 21:21:33","0","0","0","0"
"ALSJ5JQPC3A82","dez_1b_fix_v3_pilot1","155","74","2","317","74","2","-2","0","4","21","0","0","0","0","-5,-3,-3,-1,-2,-2","28","0","2017-08-16 21:21:38","0","0","0","0"
"ALSJ5JQPC3A82","dez_1b_fix_v3_pilot1","313","74","2","71","74","2","-3","0","4","18","0","0","0","0","-2,-5,0,-2,-3,-3","29","0","2017-08-16 21:21:43","0","0","0","0"
"ALSJ5JQPC3A82","dez_1b_fix_v3_pilot1","154","74","2","240","74","2","-3","1","3","15","0","0","0","0","-2,-3,1,-3,-2,-2","30","0","2017-08-16 21:21:48","0","0","0","0"
"ALSJ5JQPC3A82","dez_1b_fix_v3_pilot1","368","74","2","420","74","2","-5","1","3","10","0","0","0","0","-2,-2,2,-5,-4,-4","31","0","2017-08-16 21:21:53","0","0","0","0"
"ALSJ5JQPC3A82","dez_1b_fix_v3_pilot1","87","74","2","183","74","2","-5","1","3","5","0","0","0","0","2,-4,4,-5,-4,-4","32","0","2017-08-16 21:21:58","0","0","0","0"
"ALSJ5JQPC3A82","dez_1b_fix_v3_pilot1","244","74","2","240","74","2","-4","1","3","1","0","0","0","0","2,-2,4,-4,-3,-3","33","0","2017-08-16 21:22:03","0","0","0","0"
"ALSJ5JQPC3A82","dez_1b_fix_v3_pilot1","8","74","2","330","74","2","-1","0","4","0","0","0","0","0","4,-4,5,0,-1,-1","34","0","2017-08-16 21:22:08","0","0","0","0"
"ALSJ5JQPC3A82","dez_1b_fix_v3_pilot1","470","70","1","420","70","1","5","1","2","5","0","0","0","0","5,-4,2,2,-1,-1","35","0","2017-08-16 21:22:14","0","0","0","0"
"ALSJ5JQPC3A82","dez_1b_fix_v3_pilot1","223","74","2","5","74","2","0","1","3","5","0","0","0","0","5,-4,3,0,-3,-3","36","0","2017-08-16 21:22:19","0","0","0","0"
"ALSJ5JQPC3A82","dez_1b_fix_v3_pilot1","558","70","1","319","74","2","-4","1","2","1","0","0","0","0","5,-4,5,0,-2,-2","37","0","2017-08-16 21:22:24","0","0","0","0"
"ALSJ5JQPC3A82","dez_1b_fix_v3_pilot1","76","74","2","274","74","2","2","1","3","3","0","0","0","0","3,-4,3,2,-2,-2","38","0","2017-08-16 21:22:29","0","0","0","0"
"ALSJ5JQPC3A82","dez_1b_fix_v3_pilot1","32","70","1","228","70","1","3","1","2","6","0","0","0","0","3,-2,4,5,-2,-2","39","0","2017-08-16 21:22:34","0","0","0","0"
"ALSJ5JQPC3A82","dez_1b_fix_v3_pilot1","165","70","1","363","74","2","-3","0","4","3","0","0","0","0","3,-1,4,4,-3,-3","40","0","2017-08-16 21:22:39","0","0","0","0"
"ALSJ5JQPC3A82","dez_1b_fix_v3_pilot1","177","70","1","262","74","2","0","1","2","3","0","0","0","0","1,0,4,3,-2,-2","41","0","2017-08-16 21:22:44","0","0","0","0"
"ALSJ5JQPC3A82","dez_1b_fix_v3_pilot1","324","70","1","330","74","2","1","1","2","4","0","0","0","0","5,1,4,3,-4,-4","42","0","2017-08-16 21:22:50","0","0","0","0"
"A3EJ44J2ZNRMDA","dez_1b_fix_v3_pilot1","1818","70","1","1801","70","1","4","1","2","24","0","0","0","0","4,0,-5,-3,4,4","0","0","2017-08-16 21:22:51","0","0","0","0"
"ALSJ5JQPC3A82","dez_1b_fix_v3_pilot1","345","74","2","374","74","2","4","1","3","8","0","0","0","0","0,-1,4,4,-5,-5","43","0","2017-08-16 21:22:55","0","0","0","0"
"A3EJ44J2ZNRMDA","dez_1b_fix_v3_pilot1","626","70","1","464","70","1","4","1","2","28","0","0","0","0","4,-4,-5,-1,4,4","1","0","2017-08-16 21:22:57","0","0","0","0"
"ALSJ5JQPC3A82","dez_1b_fix_v3_pilot1","165","70","1","216","74","2","0","1","2","8","0","0","0","0","-1,0,4,3,-5,-5","44","0","2017-08-16 21:23:00","0","0","0","0"
"A3EJ44J2ZNRMDA","dez_1b_fix_v3_pilot1","367","70","1","381","70","1","3","1","2","31","0","0","0","0","3,-2,-1,0,4,4","2","0","2017-08-16 21:23:02","0","0","0","0"
"ALSJ5JQPC3A82","dez_1b_fix_v3_pilot1","311","74","2","442","70","1","4","1","3","12","0","0","0","0","0,2,4,2,-4,-4","45","0","2017-08-16 21:23:06","0","0","0","0"
"A3EJ44J2ZNRMDA","dez_1b_fix_v3_pilot1","443","70","1","696","70","1","4","1","2","35","0","0","0","0","4,1,0,-1,3,3","3","0","2017-08-16 21:23:08","0","0","0","0"
"ALSJ5JQPC3A82","dez_1b_fix_v3_pilot1","53","74","2","555","74","2","2","1","3","14","0","0","0","0","3,1,3,2,-1,-1","46","0","2017-08-16 21:23:11","0","0","0","0"
"A3EJ44J2ZNRMDA","dez_1b_fix_v3_pilot1","353","70","1","693","70","1","3","1","2","38","0","0","0","0","3,3,2,0,3,3","4","0","2017-08-16 21:23:14","0","0","0","0"
"ALSJ5JQPC3A82","dez_1b_fix_v3_pilot1","424","74","2","296","74","2","1","1","3","15","0","0","0","0","0,-3,3,1,-2,-2","47","0","2017-08-16 21:23:16","0","0","0","0"
"A3EJ44J2ZNRMDA","dez_1b_fix_v3_pilot1","492","70","1","478","70","1","4","1","2","42","0","0","0","0","4,2,2,1,4,4","5","0","2017-08-16 21:23:19","0","0","0","0"
"ALSJ5JQPC3A82","dez_1b_fix_v3_pilot1","515","74","2","903","74","2","-3","0","4","12","0","0","0","0","-2,-1,4,-2,-3,-3","48","0","2017-08-16 21:23:22","0","0","0","0"
"A3EJ44J2ZNRMDA","dez_1b_fix_v3_pilot1","372","70","1","362","70","1","2","1","2","44","0","0","0","0","2,1,0,1,3,3","6","0","2017-08-16 21:23:25","0","0","0","0"
"ALSJ5JQPC3A82","dez_1b_fix_v3_pilot1","447","74","2","330","70","1","4","1","3","16","0","0","0","0","1,1,4,-1,-3,-3","49","0","2017-08-16 21:23:28","0","0","0","0"
"A3EJ44J2ZNRMDA","dez_1b_fix_v3_pilot1","429","70","1","690","70","1","2","1","2","46","0","0","0","0","2,3,-3,0,3,3","7","0","2017-08-16 21:23:30","0","0","0","0"
"ALSJ5JQPC3A82","dez_1b_fix_v3_pilot1","244","70","1","284","70","1","2","1","2","18","0","0","0","0","2,2,5,1,-1,-1","50","0","2017-08-16 21:23:33","0","0","0","0"
"A3EJ44J2ZNRMDA","dez_1b_fix_v3_pilot1","367","70","1","452","70","1","0","1","2","46","0","0","0","0","0,1,-2,-1,3,3","8","0","2017-08-16 21:23:36","0","0","0","0"
"ALSJ5JQPC3A82","dez_1b_fix_v3_pilot1","30","74","2","218","74","2","0","1","3","18","0","0","0","0","2,-2,4,0,-1,-1","51","0","2017-08-16 21:23:38","0","0","0","0"
"A3EJ44J2ZNRMDA","dez_1b_fix_v3_pilot1","428","74","2","656","74","2","-3","1","3","43","0","0","0","0","-1,0,-1,-3,3,3","9","0","2017-08-16 21:23:42","0","0","0","0"
"ALSJ5JQPC3A82","dez_1b_fix_v3_pilot1","313","74","2","183","74","2","3","0","4","21","0","0","0","0","2,-4,4,0,3,3","52","0","2017-08-16 21:23:43","0","0","0","0"
"A3EJ44J2ZNRMDA","dez_1b_fix_v3_pilot1","433","74","2","464","70","1","-1","1","3","42","0","0","0","0","-1,1,-1,-3,2,2","10","0","2017-08-16 21:23:47","0","0","0","0"
"ALSJ5JQPC3A82","dez_1b_fix_v3_pilot1","617","74","2","409","74","2","3","1","3","24","0","0","0","0","2,0,4,3,1,1","53","0","2017-08-16 21:23:49","0","0","0","0"
"A3EJ44J2ZNRMDA","dez_1b_fix_v3_pilot1","464","70","1","575","74","2","1","1","2","43","0","0","0","0","1,1,-2,-5,2,2","11","0","2017-08-16 21:23:53","0","0","0","0"
"ALSJ5JQPC3A82","dez_1b_fix_v3_pilot1","121","70","1","206","70","1","1","1","2","25","0","0","0","0","1,1,1,0,4,4","54","0","2017-08-16 21:23:54","0","0","0","0"
"A3EJ44J2ZNRMDA","dez_1b_fix_v3_pilot1","383","70","1","868","74","2","4","0","4","47","0","0","0","0","2,4,-3,-3,4,4","12","0","2017-08-16 21:23:59","0","0","0","0"
"ALSJ5JQPC3A82","dez_1b_fix_v3_pilot1","132","70","1","633","70","1","1","0","4","26","0","0","0","0","2,1,2,-1,1,1","55","0","2017-08-16 21:23:59","0","0","0","0"
"A3EJ44J2ZNRMDA","dez_1b_fix_v3_pilot1","366","70","1","415","74","2","3","0","4","50","0","0","0","0","4,3,-3,-4,3,3","13","0","2017-08-16 21:24:04","0","0","0","0"
"ALSJ5JQPC3A82","dez_1b_fix_v3_pilot1","999","74","2","262","74","2","-1","1","3","25","0","0","0","0","1,-3,3,-1,1,1","56","0","2017-08-16 21:24:05","0","0","0","0"
"A3EJ44J2ZNRMDA","dez_1b_fix_v3_pilot1","323","70","1","919","74","2","4","1","2","54","0","0","0","0","4,4,-5,-4,4,4","14","0","2017-08-16 21:24:10","0","0","0","0"
"ALSJ5JQPC3A82","dez_1b_fix_v3_pilot1","492","74","2","251","74","2","-4","1","3","21","0","0","0","0","1,-1,3,-4,1,1","57","0","2017-08-16 21:24:10","0","0","0","0"
"ALSJ5JQPC3A82","dez_1b_fix_v3_pilot1","256","74","2","543","74","2","-3","1","3","18","0","0","0","0","0,1,4,-3,2,2","58","0","2017-08-16 21:24:16","0","0","0","0"
"A3EJ44J2ZNRMDA","dez_1b_fix_v3_pilot1","488","70","1","556","74","2","3","1","2","57","0","0","0","0","2,3,-3,-4,3,3","15","0","2017-08-16 21:24:16","0","0","0","0"
"ALSJ5JQPC3A82","dez_1b_fix_v3_pilot1","60","74","2","491","74","2","-3","1","3","15","0","0","0","0","2,1,2,-3,2,2","59","0","2017-08-16 21:24:21","0","0","0","0"
"A3EJ44J2ZNRMDA","dez_1b_fix_v3_pilot1","512","70","1","797","74","2","3","1","2","60","0","0","0","0","-2,3,-3,-5,2,2","16","0","2017-08-16 21:24:22","0","0","0","0"
"ALSJ5JQPC3A82","dez_1b_fix_v3_pilot1","414","74","2","307","74","2","0","1","3","15","0","0","0","0","-1,1,4,0,1,1","60","0","2017-08-16 21:24:26","0","0","0","0"
"A3EJ44J2ZNRMDA","dez_1b_fix_v3_pilot1","421","70","1","496","74","2","3","0","4","63","0","0","0","0","-2,3,-2,-4,3,3","17","0","2017-08-16 21:24:27","0","0","0","0"
"ALSJ5JQPC3A82","dez_1b_fix_v3_pilot1","312","74","2","218","74","2","-1","1","3","14","0","0","0","0","-3,1,4,-1,1,1","61","0","2017-08-16 21:24:32","0","0","0","0"
"A3EJ44J2ZNRMDA","dez_1b_fix_v3_pilot1","324","70","1","504","74","2","1","1","2","64","0","0","0","0","-5,1,1,-2,2,2","18","0","2017-08-16 21:24:33","0","0","0","0"
"A3EJ44J2ZNRMDA","dez_1b_fix_v3_pilot1","353","70","1","479","74","2","5","1","2","69","0","0","0","0","-5,5,4,-5,3,3","19","0","2017-08-16 21:24:38","0","0","0","0"
"ALSJ5JQPC3A82","dez_1b_fix_v3_pilot1","740","74","2","1657","74","2","-1","1","3","13","0","0","0","0","-4,-1,1,-1,-1,-1","62","0","2017-08-16 21:24:39","0","0","0","0"
"ALSJ5JQPC3A82","dez_1b_fix_v3_pilot1","233","74","2","60","74","2","-2","1","3","11","0","0","0","0","-5,-2,2,-2,-1,-1","63","0","2017-08-16 21:24:44","0","0","0","0"
"A3EJ44J2ZNRMDA","dez_1b_fix_v3_pilot1","387","70","1","548","74","2","4","1","2","73","0","0","0","0","-4,4,3,-3,4,4","20","0","2017-08-16 21:24:44","0","0","0","0"
"ALSJ5JQPC3A82","dez_1b_fix_v3_pilot1","8","70","1","240","70","1","-4","1","2","7","0","0","0","0","-4,-4,0,2,2,2","64","0","2017-08-16 21:24:49","0","0","0","0"
"A3EJ44J2ZNRMDA","dez_1b_fix_v3_pilot1","441","70","1","513","74","2","4","1","2","77","0","0","0","0","-5,4,5,-4,1,1","21","0","2017-08-16 21:24:50","0","0","0","0"
"ALSJ5JQPC3A82","dez_1b_fix_v3_pilot1","233","70","1","183","74","2","-2","1","2","5","0","0","0","0","-4,-2,1,1,1,1","65","0","2017-08-16 21:24:54","0","0","0","0"
"A3EJ44J2ZNRMDA","dez_1b_fix_v3_pilot1","535","70","1","669","74","2","4","1","2","81","0","0","0","0","-3,4,4,-3,2,2","22","0","2017-08-16 21:24:55","0","0","0","0"
"ALSJ5JQPC3A82","dez_1b_fix_v3_pilot1","335","74","2","364","74","2","-1","1","3","4","0","0","0","0","-5,-2,3,-1,2,2","66","0","2017-08-16 21:24:59","0","0","0","0"
"A3EJ44J2ZNRMDA","dez_1b_fix_v3_pilot1","391","70","1","510","74","2","2","1","2","83","0","0","0","0","-3,2,5,-1,1,1","23","0","2017-08-16 21:25:01","0","0","0","0"
"ALSJ5JQPC3A82","dez_1b_fix_v3_pilot1","54","70","1","206","70","1","1","0","4","5","0","0","0","0","-4,-4,4,0,1,1","67","0","2017-08-16 21:25:04","0","0","0","0"
"A3EJ44J2ZNRMDA","dez_1b_fix_v3_pilot1","353","70","1","365","74","2","1","1","2","84","0","0","0","0","-4,1,5,-2,-1,-1","24","0","2017-08-16 21:25:06","0","0","0","0"
"ALSJ5JQPC3A82","dez_1b_fix_v3_pilot1","447","74","2","206","74","2","-2","1","3","3","0","0","0","0","-4,-3,4,-2,1,1","68","0","2017-08-16 21:25:09","0","0","0","0"
"A3EJ44J2ZNRMDA","dez_1b_fix_v3_pilot1","362","70","1","1153","74","2","-5","0","4","79","0","0","0","0","-5,3,1,-3,-5,-5","25","0","2017-08-16 21:25:13","0","0","0","0"
"ALSJ5JQPC3A82","dez_1b_fix_v3_pilot1","165","70","1","159","70","1","-3","1","2","0","0","0","0","0","-3,-2,4,-4,1,1","69","0","2017-08-16 21:25:14","0","0","0","0"
"A3EJ44J2ZNRMDA","dez_1b_fix_v3_pilot1","481","70","1","488","74","2","3","1","2","82","0","0","0","0","-2,3,0,-5,-3,-3","26","0","2017-08-16 21:25:18","0","0","0","0"
"ALSJ5JQPC3A82","dez_1b_fix_v3_pilot1","290","74","2","262","74","2","-1","1","3","-1","0","0","0","0","-3,-2,4,-1,-1,-1","70","0","2017-08-16 21:25:19","0","0","0","0"
"A3EJ44J2ZNRMDA","dez_1b_fix_v3_pilot1","530","70","1","492","74","2","4","1","2","86","0","0","0","0","-2,4,-1,-3,-4,-4","27","0","2017-08-16 21:25:24","0","0","0","0"
"ALSJ5JQPC3A82","dez_1b_fix_v3_pilot1","154","70","1","217","70","1","-5","1","2","-6","0","0","0","0","-5,-5,4,2,-2,-2","71","0","2017-08-16 21:25:25","0","0","0","0"
"A3EJ44J2ZNRMDA","dez_1b_fix_v3_pilot1","378","70","1","488","74","2","3","1","2","89","0","0","0","0","-2,3,-1,-4,-3,-3","28","0","2017-08-16 21:25:29","0","0","0","0"
"ALSJ5JQPC3A82","dez_1b_fix_v3_pilot1","390","74","2","285","74","2","2","1","3","-4","0","0","0","0","-5,-4,4,2,-3,-3","72","0","2017-08-16 21:25:30","0","0","0","0"
"ALSJ5JQPC3A82","dez_1b_fix_v3_pilot1","231","70","1","217","70","1","-4","1","2","-8","0","0","0","0","-4,-4,4,1,-2,-2","73","0","2017-08-16 21:25:35","0","0","0","0"
"A3EJ44J2ZNRMDA","dez_1b_fix_v3_pilot1","425","70","1","527","74","2","0","1","2","89","0","0","0","0","-1,0,1,-4,-3,-3","29","0","2017-08-16 21:25:35","0","0","0","0"
"ALSJ5JQPC3A82","dez_1b_fix_v3_pilot1","526","74","2","195","74","2","2","1","3","-6","0","0","0","0","-5,-1,4,2,-3,-3","74","0","2017-08-16 21:25:40","0","0","0","0"
"A3EJ44J2ZNRMDA","dez_1b_fix_v3_pilot1","422","70","1","409","70","1","1","1","2","90","0","0","0","0","1,-1,0,-3,-4,-4","30","0","2017-08-16 21:25:41","0","0","0","0"
"ALSJ5JQPC3A82","dez_1b_fix_v3_pilot1","537","74","2","127","74","2","2","1","3","-4","0","0","0","0","-4,-2,3,2,-2,-2","75","0","2017-08-16 21:25:46","0","0","0","0"
"A3EJ44J2ZNRMDA","dez_1b_fix_v3_pilot1","418","70","1","413","70","1","-3","0","4","87","0","0","0","0","2,-4,5,0,-3,-3","31","0","2017-08-16 21:25:46","0","0","0","0"
"ALSJ5JQPC3A82","dez_1b_fix_v3_pilot1","143","74","2","82","74","2","3","1","3","-1","0","0","0","0","-5,0,3,3,-3,-3","76","0","2017-08-16 21:25:51","0","0","0","0"
"A3EJ44J2ZNRMDA","dez_1b_fix_v3_pilot1","454","70","1","374","70","1","0","1","2","87","0","0","0","0","0,-3,3,1,-4,-4","32","0","2017-08-16 21:25:52","0","0","0","0"
"ALSJ5JQPC3A82","dez_1b_fix_v3_pilot1","109","74","2","329","74","2","1","1","3","0","0","0","0","0","-4,0,4,1,-2,-2","77","0","2017-08-16 21:25:56","0","0","0","0"
"A3EJ44J2ZNRMDA","dez_1b_fix_v3_pilot1","476","74","2","940","74","2","1","1","3","88","0","0","0","0","-1,-5,1,1,-4,-4","33","0","2017-08-16 21:25:58","0","0","0","0"
"ALSJ5JQPC3A82","dez_1b_fix_v3_pilot1","120","70","1","195","70","1","-5","0","4","-5","0","0","0","0","-4,1,4,0,-5,-5","78","0","2017-08-16 21:26:01","0","0","0","0"
"A3EJ44J2ZNRMDA","dez_1b_fix_v3_pilot1","355","74","2","658","70","1","3","1","3","91","0","0","0","0","-4,-4,3,0,-3,-3","34","0","2017-08-16 21:26:03","0","0","0","0"
"ALSJ5JQPC3A82","dez_1b_fix_v3_pilot1","311","74","2","161","70","1","3","1","3","-2","0","0","0","0","-3,0,3,-2,-4,-4","79","0","2017-08-16 21:26:06","0","0","0","0"
"A3EJ44J2ZNRMDA","dez_1b_fix_v3_pilot1","524","74","2","1935","70","1","2","1","3","93","0","0","0","0","0,-3,2,-3,-3,-3","35","0","2017-08-16 21:26:10","0","0","0","0"
"ALSJ5JQPC3A82","dez_1b_fix_v3_pilot1","346","70","1","183","70","1","-5","1","2","-7","0","0","0","0","-5,-1,2,1,-4,-4","80","0","2017-08-16 21:26:11","0","0","0","0"
"ALSJ5JQPC3A82","dez_1b_fix_v3_pilot1","98","74","2","93","74","2","4","1","3","-3","0","0","0","0","-2,-3,2,4,-1,-1","81","0","2017-08-16 21:26:16","0","0","0","0"
"A3EJ44J2ZNRMDA","dez_1b_fix_v3_pilot1","1528","74","2","801","70","1","2","1","3","95","0","0","0","0","-3,-4,2,-3,1,1","36","0","2017-08-16 21:26:17","0","0","0","0"
"ALSJ5JQPC3A82","dez_1b_fix_v3_pilot1","459","70","1","229","70","1","-4","1","2","-7","0","0","0","0","-4,-5,-2,3,-1,-1","82","0","2017-08-16 21:26:21","0","0","0","0"
"A3EJ44J2ZNRMDA","dez_1b_fix_v3_pilot1","524","74","2","464","70","1","0","1","3","95","0","0","0","0","-5,-2,0,-3,-1,-1","37","0","2017-08-16 21:26:23","0","0","0","0"
"ALSJ5JQPC3A82","dez_1b_fix_v3_pilot1","64","74","2","599","74","2","2","1","3","-5","0","0","0","0","-5,-4,-3,2,-3,-3","83","0","2017-08-16 21:26:26","0","0","0","0"
"A3EJ44J2ZNRMDA","dez_1b_fix_v3_pilot1","444","74","2","463","74","2","-2","1","3","93","0","0","0","0","-2,-1,0,-2,1,1","38","0","2017-08-16 21:26:29","0","0","0","0"
"ALSJ5JQPC3A82","dez_1b_fix_v3_pilot1","367","70","1","217","70","1","-3","1","2","-8","0","0","0","0","-3,-4,-3,4,-3,-3","84","0","2017-08-16 21:26:32","0","0","0","0"
"A3EJ44J2ZNRMDA","dez_1b_fix_v3_pilot1","384","70","1","522","70","1","-3","1","2","90","0","0","0","0","-3,0,-2,-5,-2,-2","39","0","2017-08-16 21:26:34","0","0","0","0"
"ALSJ5JQPC3A82","dez_1b_fix_v3_pilot1","267","70","1","644","70","1","-3","1","2","-11","0","0","0","0","-3,-3,-3,2,-3,-3","85","0","2017-08-16 21:26:37","0","0","0","0"
"A3EJ44J2ZNRMDA","dez_1b_fix_v3_pilot1","325","70","1","422","74","2","0","1","2","90","0","0","0","0","-4,0,-1,-5,2,2","40","0","2017-08-16 21:26:40","0","0","0","0"
"ALSJ5JQPC3A82","dez_1b_fix_v3_pilot1","211","74","2","139","74","2","2","1","3","-9","0","0","0","0","-5,-2,-2,2,-3,-3","86","0","2017-08-16 21:26:42","0","0","0","0"
"A3EJ44J2ZNRMDA","dez_1b_fix_v3_pilot1","346","70","1","464","74","2","-2","1","2","88","0","0","0","0","-4,-2,-2,-4,1,1","41","0","2017-08-16 21:26:45","0","0","0","0"
"ALSJ5JQPC3A82","dez_1b_fix_v3_pilot1","1876","70","1","217","70","1","-4","1","2","-13","0","0","0","0","-4,-2,-3,2,-4,-4","87","0","2017-08-16 21:26:49","0","0","0","0"
"A3EJ44J2ZNRMDA","dez_1b_fix_v3_pilot1","468","70","1","1273","74","2","-1","1","2","87","0","0","0","0","-5,-1,-3,-3,-4,-4","42","0","2017-08-16 21:26:52","0","0","0","0"
"ALSJ5JQPC3A82","dez_1b_fix_v3_pilot1","290","74","2","173","70","1","-3","0","4","-16","0","0","0","0","-3,0,-4,0,-3,-3","88","0","2017-08-16 21:26:54","0","0","0","0"
"A3EJ44J2ZNRMDA","dez_1b_fix_v3_pilot1","371","74","2","657","74","2","1","1","3","88","0","0","0","0","-4,0,-2,1,-3,-3","43","0","2017-08-16 21:26:57","0","0","0","0"
"ALSJ5JQPC3A82","dez_1b_fix_v3_pilot1","301","74","2","127","74","2","1","1","3","-15","0","0","0","0","-4,-3,-3,1,-2,-2","89","0","2017-08-16 21:26:59","0","0","0","0"
"A3EJ44J2ZNRMDA","dez_1b_fix_v3_pilot1","409","74","2","445","70","1","-3","1","3","85","0","0","0","0","-4,1,-3,0,-3,-3","44","0","2017-08-16 21:27:03","0","0","0","0"
"ALSJ5JQPC3A82","dez_1b_fix_v3_pilot1","143","70","1","161","70","1","-3","0","4","-18","0","0","0","0","-4,-2,-3,3,-3,-3","90","0","2017-08-16 21:27:04","0","0","0","0"
"A3EJ44J2ZNRMDA","dez_1b_fix_v3_pilot1","361","74","2","379","74","2","-3","1","3","82","0","0","0","0","-5,0,-2,-3,-4,-4","45","0","2017-08-16 21:27:08","0","0","0","0"
"ALSJ5JQPC3A82","dez_1b_fix_v3_pilot1","178","74","2","296","70","1","-4","1","3","-22","0","0","0","0","-4,-2,-4,2,-4,-4","91","0","2017-08-16 21:27:09","0","0","0","0"
"A3EJ44J2ZNRMDA","dez_1b_fix_v3_pilot1","364","74","2","482","74","2","-2","1","3","80","0","0","0","0","-3,2,-1,-2,-5,-5","46","0","2017-08-16 21:27:14","0","0","0","0"
"ALSJ5JQPC3A82","dez_1b_fix_v3_pilot1","713","74","2","240","74","2","1","1","3","-21","0","0","0","1","-4,-4,-4,1,-4,-4","92","0","2017-08-16 21:27:17","0","0","0","0"
"A3EJ44J2ZNRMDA","dez_1b_fix_v3_pilot1","422","70","1","357","70","1","-4","1","2","76","0","0","0","0","-4,3,3,-1,-1,-1","47","0","2017-08-16 21:27:19","0","0","0","0"
"ALSJ5JQPC3A82","dez_1b_fix_v3_pilot1","1436","74","2","206","74","2","-3","0","4","-24","0","0","0","0","-3,-3,-4,-1,-3,-3","93","0","2017-08-16 21:27:23","0","0","0","0"
"A3EJ44J2ZNRMDA","dez_1b_fix_v3_pilot1","493","70","1","362","74","2","3","1","2","79","0","0","0","0","-3,3,3,-2,-4,-4","48","0","2017-08-16 21:27:25","0","0","0","0"
"ALSJ5JQPC3A82","dez_1b_fix_v3_pilot1","503","74","2","105","74","2","-1","1","3","-25","0","0","0","0","-4,0,-4,-1,-4,-4","94","0","2017-08-16 21:27:28","0","0","0","0"
"A3EJ44J2ZNRMDA","dez_1b_fix_v3_pilot1","403","70","1","351","74","2","-5","0","4","74","0","0","0","0","-4,2,4,-3,-5,-5","49","0","2017-08-16 21:27:30","0","0","0","0"
"ALSJ5JQPC3A82","dez_1b_fix_v3_pilot1","234","74","2","116","74","2","-3","0","4","-28","0","0","0","0","-2,-1,-3,-2,-3,-3","95","0","2017-08-16 21:27:33","0","0","0","0"
"A3EJ44J2ZNRMDA","dez_1b_fix_v3_pilot1","416","70","1","484","74","2","3","1","2","77","0","0","0","0","-1,3,3,-3,-2,-2","50","0","2017-08-16 21:27:36","0","0","0","0"
"ALSJ5JQPC3A82","dez_1b_fix_v3_pilot1","425","74","2","71","74","2","-1","1","3","-29","0","0","0","0","-2,1,-4,-1,-4,-4","96","0","2017-08-16 21:27:39","0","0","0","0"
"A3EJ44J2ZNRMDA","dez_1b_fix_v3_pilot1","1003","70","1","414","74","2","4","1","2","81","0","0","0","0","-1,4,1,-2,-2,-2","51","0","2017-08-16 21:27:42","0","0","0","0"
"ALSJ5JQPC3A82","dez_1b_fix_v3_pilot1","111","74","2","216","74","2","0","1","3","-29","0","0","0","0","-3,1,-4,0,-3,-3","97","0","2017-08-16 21:27:44","0","0","0","0"
"A3EJ44J2ZNRMDA","dez_1b_fix_v3_pilot1","385","70","1","416","74","2","3","1","2","84","0","0","0","0","-1,3,0,-1,-1,-1","52","0","2017-08-16 21:27:47","0","0","0","0"
"ALSJ5JQPC3A82","dez_1b_fix_v3_pilot1","593","74","2","48","74","2","-4","0","4","-33","0","0","0","0","-4,0,-5,1,-4,-4","98","0","2017-08-16 21:27:49","0","0","0","0"
"A3EJ44J2ZNRMDA","dez_1b_fix_v3_pilot1","649","70","1","385","74","2","1","1","2","85","0","0","0","0","1,1,0,-3,-2,-2","53","0","2017-08-16 21:27:53","0","0","0","0"
"ALSJ5JQPC3A82","dez_1b_fix_v3_pilot1","480","74","2","352","74","2","1","1","3","-32","0","0","0","0","-5,-1,-4,1,-2,-2","99","0","2017-08-16 21:27:54","0","0","0","0"
"A3EJ44J2ZNRMDA","dez_1b_fix_v3_pilot1","367","70","1","377","74","2","1","1","2","86","0","0","0","0","4,1,-1,-4,-1,-1","54","0","2017-08-16 21:27:58","0","0","0","0"
"ALSJ5JQPC3A82","dez_1b_fix_v3_pilot1","142","74","2","105","74","2","0","1","3","-32","0","0","0","0","-5,-4,-5,0,-2,-2","100","0","2017-08-16 21:27:59","0","0","0","0"
"A3EJ44J2ZNRMDA","dez_1b_fix_v3_pilot1","377","70","1","420","74","2","3","1","2","89","0","0","0","0","3,3,2,-2,1,1","55","0","2017-08-16 21:28:04","0","0","0","0"
"ALSJ5JQPC3A82","dez_1b_fix_v3_pilot1","435","74","2","71","74","2","0","1","3","-32","0","0","0","0","-1,-2,-5,0,-1,-1","101","0","2017-08-16 21:28:04","0","0","0","0"
"ALSJ5JQPC3A82","dez_1b_fix_v3_pilot1","222","70","1","172","70","1","1","0","4","-31","0","0","0","0","-3,0,-4,-1,1,1","102","0","2017-08-16 21:28:09","0","0","0","0"
"A3EJ44J2ZNRMDA","dez_1b_fix_v3_pilot1","670","70","1","465","74","2","4","1","2","93","0","0","0","0","5,4,4,-1,-3,-3","56","0","2017-08-16 21:28:09","0","0","0","0"
"ALSJ5JQPC3A82","dez_1b_fix_v3_pilot1","221","74","2","116","74","2","-3","1","3","-34","0","0","0","0","0,0,-3,-3,2,2","103","0","2017-08-16 21:28:14","0","0","0","0"
"A3EJ44J2ZNRMDA","dez_1b_fix_v3_pilot1","376","70","1","408","74","2","5","1","2","98","0","0","0","0","5,5,3,-5,-4,-4","57","0","2017-08-16 21:28:15","0","0","0","0"
"ALSJ5JQPC3A82","dez_1b_fix_v3_pilot1","188","74","2","285","70","1","0","1","3","-34","0","0","0","0","-1,2,0,-2,1,1","104","0","2017-08-16 21:28:20","0","0","0","0"
"A3EJ44J2ZNRMDA","dez_1b_fix_v3_pilot1","372","70","1","402","74","2","3","1","2","101","0","0","0","0","1,3,3,-1,-3,-3","58","0","2017-08-16 21:28:20","0","0","0","0"
"ALSJ5JQPC3A82","dez_1b_fix_v3_pilot1","155","74","2","171","74","2","-4","1","3","-38","0","0","0","0","0,0,-3,-4,1,1","105","0","2017-08-16 21:28:25","0","0","0","0"
"A3EJ44J2ZNRMDA","dez_1b_fix_v3_pilot1","399","70","1","448","74","2","3","1","2","104","0","0","0","0","-2,3,3,-2,-3,-3","59","0","2017-08-16 21:28:26","0","0","0","0"
"ALSJ5JQPC3A82","dez_1b_fix_v3_pilot1","312","74","2","251","70","1","-2","1","3","-40","0","0","0","0","2,-3,-2,-4,-1,-1","106","0","2017-08-16 21:28:30","0","0","0","0"
"A3EJ44J2ZNRMDA","dez_1b_fix_v3_pilot1","632","70","1","390","74","2","3","1","2","107","0","0","0","0","0,3,5,-2,-3,-3","60","0","2017-08-16 21:28:32","0","0","0","0"
"ALSJ5JQPC3A82","dez_1b_fix_v3_pilot1","199","74","2","262","74","2","-4","1","3","-44","0","0","0","0","2,-4,-2,-4,-1,-1","107","0","2017-08-16 21:28:35","0","0","0","0"
"ALSJ5JQPC3A82","dez_1b_fix_v3_pilot1","312","74","2","364","74","2","-1","1","3","-45","0","0","0","0","-1,-2,-1,-1,-1,-1","108","0","2017-08-16 21:28:40","0","0","0","0"
"A3EJ44J2ZNRMDA","dez_1b_fix_v3_pilot1","1257","74","2","627","74","2","-2","1","3","105","0","0","0","2","-2,4,4,-2,-5,-5","61","0","2017-08-16 21:28:43","0","0","0","0"
"ALSJ5JQPC3A82","dez_1b_fix_v3_pilot1","7","74","2","1500","74","2","0","1","3","-45","0","0","0","0","-2,1,-4,0,-3,-3","109","0","2017-08-16 21:28:46","0","0","0","0"
"A3EJ44J2ZNRMDA","dez_1b_fix_v3_pilot1","670","70","1","700","74","2","3","1","2","108","0","0","0","0","1,3,2,-4,-1,-1","62","0","2017-08-16 21:28:49","0","0","0","0"
"ALSJ5JQPC3A82","dez_1b_fix_v3_pilot1","277","74","2","139","74","2","-1","1","3","-46","0","0","0","0","-1,0,-3,-1,-4,-4","110","0","2017-08-16 21:28:52","0","0","0","0"
"A3EJ44J2ZNRMDA","dez_1b_fix_v3_pilot1","439","70","1","456","74","2","5","1","2","113","0","0","0","0","-2,5,1,-1,3,3","63","0","2017-08-16 21:28:55","0","0","0","0"
"ALSJ5JQPC3A82","dez_1b_fix_v3_pilot1","76","74","2","296","74","2","-5","0","4","-51","0","0","0","0","-1,0,-1,-2,-5,-5","111","0","2017-08-16 21:28:56","0","0","0","0"
"A3EJ44J2ZNRMDA","dez_1b_fix_v3_pilot1","554","70","1","447","74","2","4","1","2","117","0","0","0","0","-1,4,1,-3,-1,-1","64","0","2017-08-16 21:29:00","0","0","0","0"
"ALSJ5JQPC3A82","dez_1b_fix_v3_pilot1","750","74","2","60","74","2","-3","1","3","-54","0","0","0","0","-5,4,-1,-3,-4,-4","112","0","2017-08-16 21:29:02","0","0","0","0"
"A3EJ44J2ZNRMDA","dez_1b_fix_v3_pilot1","345","70","1","408","74","2","-3","0","4","114","0","0","0","0","-1,5,4,-2,-3,-3","65","0","2017-08-16 21:29:06","0","0","0","0"
"ALSJ5JQPC3A82","dez_1b_fix_v3_pilot1","403","74","2","26","74","2","-5","1","3","-59","0","0","0","0","-4,4,-1,-5,-4,-4","113","0","2017-08-16 21:29:07","0","0","0","0"
"A3EJ44J2ZNRMDA","dez_1b_fix_v3_pilot1","395","70","1","457","74","2","2","1","2","116","0","0","0","0","-1,2,4,-2,-3,-3","66","0","2017-08-16 21:29:11","0","0","0","0"
"ALSJ5JQPC3A82","dez_1b_fix_v3_pilot1","99","70","1","195","70","1","4","0","4","-55","0","0","0","0","-5,4,-3,-5,4,4","114","0","2017-08-16 21:29:12","0","0","0","0"
"A3EJ44J2ZNRMDA","dez_1b_fix_v3_pilot1","387","70","1","548","74","2","3","1","2","119","0","0","0","0","-1,3,3,0,-5,-5","67","0","2017-08-16 21:29:17","0","0","0","0"
"ALSJ5JQPC3A82","dez_1b_fix_v3_pilot1","29","70","1","262","70","1","-2","1","2","-57","0","0","0","0","-2,4,-3,-3,5,5","115","0","2017-08-16 21:29:17","0","0","0","0"
"ALSJ5JQPC3A82","dez_1b_fix_v3_pilot1","42","70","1","183","70","1","2","0","4","-55","0","0","0","0","-2,4,-3,-4,2,2","116","0","2017-08-16 21:29:22","0","0","0","0"
"A3EJ44J2ZNRMDA","dez_1b_fix_v3_pilot1","379","70","1","539","74","2","2","1","2","121","0","0","0","0","-1,2,3,-2,-4,-4","68","0","2017-08-16 21:29:22","0","0","0","0"
"ALSJ5JQPC3A82","dez_1b_fix_v3_pilot1","199","74","2","150","74","2","-5","1","3","-60","0","0","0","0","0,4,-3,-5,5,5","117","0","2017-08-16 21:29:27","0","0","0","0"
"A3EJ44J2ZNRMDA","dez_1b_fix_v3_pilot1","301","70","1","445","74","2","2","1","2","123","0","0","0","0","-2,2,3,-1,-4,-4","69","0","2017-08-16 21:29:28","0","0","0","0"
"ALSJ5JQPC3A82","dez_1b_fix_v3_pilot1","9","74","2","1555","70","1","-3","1","3","-63","0","0","0","0","-2,4,-3,-4,4,4","118","0","2017-08-16 21:29:33","0","0","0","0"
"A3EJ44J2ZNRMDA","dez_1b_fix_v3_pilot1","400","70","1","540","74","2","1","1","2","124","0","0","0","0","-1,1,0,-3,-4,-4","70","0","2017-08-16 21:29:33","0","0","0","0"
"ALSJ5JQPC3A82","dez_1b_fix_v3_pilot1","446","70","1","93","70","1","4","0","4","-59","0","0","0","0","0,5,-1,0,4,4","119","0","2017-08-16 21:29:38","0","0","0","0"
"A3EJ44J2ZNRMDA","dez_1b_fix_v3_pilot1","295","70","1","422","74","2","3","1","2","127","0","0","0","0","1,3,-2,-5,-1,-1","71","0","2017-08-16 21:29:39","0","0","0","0"
"ALSJ5JQPC3A82","dez_1b_fix_v3_pilot1","369","70","1","71","70","1","-1","1","2","-60","0","0","0","0","-1,5,-3,0,3,3","120","0","2017-08-16 21:29:43","0","0","0","0"
"A3EJ44J2ZNRMDA","dez_1b_fix_v3_pilot1","445","70","1","436","74","2","5","1","2","132","0","0","0","0","3,5,1,-4,-1,-1","72","0","2017-08-16 21:29:44","0","0","0","0"
"A3EJ44J2ZNRMDA","dez_1b_fix_v3_pilot1","399","70","1","467","74","2","5","1","2","137","0","0","0","0","0,5,0,-4,-2,-2","73","0","2017-08-16 21:29:50","0","0","0","0"
"ALSJ5JQPC3A82","dez_1b_fix_v3_pilot1","1314","70","1","1398","70","1","-1","1","2","-61","0","0","0","0","-1,3,-3,2,2,2","121","0","2017-08-16 21:29:51","0","0","0","0"
"A3EJ44J2ZNRMDA","dez_1b_fix_v3_pilot1","521","70","1","500","74","2","5","1","2","142","0","0","0","0","1,5,3,-3,-5,-5","74","0","2017-08-16 21:29:56","0","0","0","0"
"ALSJ5JQPC3A82","dez_1b_fix_v3_pilot1","514","70","1","1016","70","1","-1","1","2","-62","0","0","0","0","-1,4,-4,5,2,2","122","0","2017-08-16 21:29:57","0","0","0","0"
"A3EJ44J2ZNRMDA","dez_1b_fix_v3_pilot1","417","70","1","385","74","2","4","1","2","146","0","0","0","0","2,4,2,-3,-5,-5","75","0","2017-08-16 21:30:01","0","0","0","0"
"ALSJ5JQPC3A82","dez_1b_fix_v3_pilot1","87","70","1","352","70","1","-3","1","2","-65","0","0","0","0","-3,4,-5,5,5,5","123","0","2017-08-16 21:30:02","0","0","0","0"
"A3EJ44J2ZNRMDA","dez_1b_fix_v3_pilot1","387","70","1","359","74","2","5","1","2","151","0","0","0","0","1,5,2,-2,-3,-3","76","0","2017-08-16 21:30:06","0","0","0","0"
"ALSJ5JQPC3A82","dez_1b_fix_v3_pilot1","166","74","2","93","74","2","2","1","3","-63","0","0","0","0","-4,2,-4,2,4,4","124","0","2017-08-16 21:30:07","0","0","0","0"
"A3EJ44J2ZNRMDA","dez_1b_fix_v3_pilot1","376","70","1","526","74","2","3","1","2","154","0","0","0","0","-1,3,3,-1,-3,-3","77","0","2017-08-16 21:30:12","0","0","0","0"
"ALSJ5JQPC3A82","dez_1b_fix_v3_pilot1","222","74","2","443","74","2","3","1","3","-60","0","0","0","0","-2,0,-3,3,4,4","125","0","2017-08-16 21:30:12","0","0","0","0"
"ALSJ5JQPC3A82","dez_1b_fix_v3_pilot1","312","74","2","229","74","2","4","0","4","-56","0","0","0","0","-3,1,-2,4,4,4","126","0","2017-08-16 21:30:17","0","0","0","0"
"A3EJ44J2ZNRMDA","dez_1b_fix_v3_pilot1","419","70","1","525","74","2","-1","1","2","153","0","0","0","0","-1,-1,5,2,-5,-5","78","0","2017-08-16 21:30:18","0","0","0","0"
"ALSJ5JQPC3A82","dez_1b_fix_v3_pilot1","324","70","1","218","70","1","-4","1","2","-60","0","0","0","0","-4,-2,-2,4,3,3","127","0","2017-08-16 21:30:23","0","0","0","0"
"A3EJ44J2ZNRMDA","dez_1b_fix_v3_pilot1","345","70","1","550","70","1","-1","1","2","152","0","0","0","0","-1,-1,4,3,-5,-5","79","0","2017-08-16 21:30:23","0","0","0","0"
"ALSJ5JQPC3A82","dez_1b_fix_v3_pilot1","300","74","2","195","74","2","4","1","3","-56","0","0","0","0","-3,-1,3,4,2,2","128","0","2017-08-16 21:30:28","0","0","0","0"
"A3EJ44J2ZNRMDA","dez_1b_fix_v3_pilot1","670","74","2","480","70","1","4","1","3","156","0","0","0","0","-2,0,4,2,-2,-2","80","0","2017-08-16 21:30:29","0","0","0","0"
"ALSJ5JQPC3A82","dez_1b_fix_v3_pilot1","19","70","1","228","70","1","-4","1","2","-60","0","0","0","0","-4,2,5,4,-1,-1","129","0","2017-08-16 21:30:33","0","0","0","0"
"A3EJ44J2ZNRMDA","dez_1b_fix_v3_pilot1","548","74","2","446","70","1","4","1","3","160","0","0","0","0","-1,2,4,1,-5,-5","81","0","2017-08-16 21:30:35","0","0","0","0"
"ALSJ5JQPC3A82","dez_1b_fix_v3_pilot1","132","70","1","285","74","2","2","1","2","-58","0","0","0","0","-5,2,3,5,-1,-1","130","0","2017-08-16 21:30:38","0","0","0","0"
"A3EJ44J2ZNRMDA","dez_1b_fix_v3_pilot1","374","74","2","608","70","1","2","1","3","162","0","0","0","0","1,0,2,4,-2,-2","82","0","2017-08-16 21:30:40","0","0","0","0"
"ALSJ5JQPC3A82","dez_1b_fix_v3_pilot1","312","70","1","228","74","2","1","1","2","-57","0","0","0","0","-3,1,2,5,-1,-1","131","0","2017-08-16 21:30:43","0","0","0","0"
"A3EJ44J2ZNRMDA","dez_1b_fix_v3_pilot1","400","74","2","383","70","1","-1","0","4","161","0","0","0","0","0,1,3,4,-1,-1","83","0","2017-08-16 21:30:46","0","0","0","0"
"ALSJ5JQPC3A82","dez_1b_fix_v3_pilot1","300","74","2","116","74","2","3","1","3","-54","0","0","0","0","0,4,2,3,2,2","132","0","2017-08-16 21:30:48","0","0","0","0"
"A3EJ44J2ZNRMDA","dez_1b_fix_v3_pilot1","729","74","2","1029","74","2","1","0","4","162","0","0","0","0","0,1,0,3,1,1","84","0","2017-08-16 21:30:52","0","0","0","0"
"ALSJ5JQPC3A82","dez_1b_fix_v3_pilot1","165","74","2","49","74","2","3","0","4","-51","0","0","0","0","-1,3,1,2,3,3","133","0","2017-08-16 21:30:53","0","0","0","0"
"A3EJ44J2ZNRMDA","dez_1b_fix_v3_pilot1","379","74","2","717","70","1","0","1","3","162","0","0","0","0","0,-1,0,5,2,2","85","0","2017-08-16 21:30:58","0","0","0","0"
"ALSJ5JQPC3A82","dez_1b_fix_v3_pilot1","672","74","2","836","70","1","1","0","4","-50","0","0","0","0","-3,3,0,2,1,1","134","0","2017-08-16 21:30:59","0","0","0","0"
"A3EJ44J2ZNRMDA","dez_1b_fix_v3_pilot1","511","74","2","388","70","1","1","1","3","163","0","0","0","0","1,-3,1,3,3,3","86","0","2017-08-16 21:31:03","0","0","0","0"
"ALSJ5JQPC3A82","dez_1b_fix_v3_pilot1","391","74","2","172","74","2","1","0","4","-49","0","0","0","0","-3,-1,-1,3,1,1","135","0","2017-08-16 21:31:04","0","0","0","0"
"A3EJ44J2ZNRMDA","dez_1b_fix_v3_pilot1","485","74","2","616","70","1","4","1","3","167","0","0","0","0","-2,-4,4,3,5,5","87","0","2017-08-16 21:31:09","0","0","0","0"
"ALSJ5JQPC3A82","dez_1b_fix_v3_pilot1","324","70","1","600","70","1","-4","1","2","-53","0","0","0","0","-4,0,-3,3,3,3","136","0","2017-08-16 21:31:10","0","0","0","0"
"A3EJ44J2ZNRMDA","dez_1b_fix_v3_pilot1","350","74","2","491","70","1","3","1","3","170","0","0","0","0","-2,-3,3,-1,3,3","88","0","2017-08-16 21:31:15","0","0","0","0"
"ALSJ5JQPC3A82","dez_1b_fix_v3_pilot1","93","70","1","824","70","1","2","0","4","-51","0","0","0","1","-3,0,0,4,2,2","137","0","2017-08-16 21:31:17","0","0","0","0"
"A3EJ44J2ZNRMDA","dez_1b_fix_v3_pilot1","382","74","2","448","70","1","5","1","3","175","0","0","0","0","-1,0,5,1,2,2","89","0","2017-08-16 21:31:20","0","0","0","0"
"ALSJ5JQPC3A82","dez_1b_fix_v3_pilot1","469","74","2","791","70","1","0","1","3","-51","0","0","0","0","-2,0,0,3,1,1","138","0","2017-08-16 21:31:23","0","0","0","0"
"A3EJ44J2ZNRMDA","dez_1b_fix_v3_pilot1","709","74","2","653","70","1","4","1","3","179","0","0","0","0","-1,-2,4,2,5,5","90","0","2017-08-16 21:31:26","0","0","0","0"
"ALSJ5JQPC3A82","dez_1b_fix_v3_pilot1","335","70","1","48","70","1","-1","0","4","-52","0","0","0","0","-2,-1,4,3,-1,-1","139","0","2017-08-16 21:31:28","0","0","0","0"
"A3EJ44J2ZNRMDA","dez_1b_fix_v3_pilot1","476","74","2","1254","74","2","4","0","4","183","0","0","0","0","-2,-2,2,2,4,4","91","0","2017-08-16 21:31:33","0","0","0","0"
"ALSJ5JQPC3A82","dez_1b_fix_v3_pilot1","380","74","2","431","74","2","-1","1","3","-53","0","0","0","0","-1,-2,5,-1,-2,-2","140","0","2017-08-16 21:31:34","0","0","0","0"
"A3EJ44J2ZNRMDA","dez_1b_fix_v3_pilot1","386","74","2","673","70","1","3","1","3","186","0","0","0","0","-2,0,3,2,5,5","92","0","2017-08-16 21:31:38","0","0","0","0"
"A3EJ44J2ZNRMDA","dez_1b_fix_v3_pilot1","418","74","2","466","70","1","2","1","3","188","0","0","0","0","-3,-2,2,-3,3,3","93","0","2017-08-16 21:31:44","0","0","0","0"
"ALSJ5JQPC3A82","dez_1b_fix_v3_pilot1","722","74","2","1376","74","2","-4","0","4","-57","0","0","0","3","-3,-3,4,-2,-4,-4","141","0","2017-08-16 21:31:48","0","0","0","0"
"A3EJ44J2ZNRMDA","dez_1b_fix_v3_pilot1","373","74","2","724","70","1","1","1","3","189","0","0","0","0","-3,-3,1,-4,2,2","94","0","2017-08-16 21:31:50","0","0","0","0"
"ALSJ5JQPC3A82","dez_1b_fix_v3_pilot1","346","74","2","228","74","2","-3","1","3","-60","0","0","0","0","-3,-2,2,-3,-5,-5","142","0","2017-08-16 21:31:54","0","0","0","0"
"A3EJ44J2ZNRMDA","dez_1b_fix_v3_pilot1","389","74","2","556","70","1","-2","1","3","187","0","0","0","0","-2,-3,-2,-2,1,1","95","0","2017-08-16 21:31:55","0","0","0","0"
"ALSJ5JQPC3A82","dez_1b_fix_v3_pilot1","267","74","2","183","74","2","-2","1","3","-62","0","0","0","0","-1,0,4,-2,-3,-3","143","0","2017-08-16 21:31:59","0","0","0","0"
"A3EJ44J2ZNRMDA","dez_1b_fix_v3_pilot1","346","70","1","530","70","1","-5","1","2","182","0","0","0","0","-5,2,0,-2,3,3","96","0","2017-08-16 21:32:01","0","0","0","0"
"ALSJ5JQPC3A82","dez_1b_fix_v3_pilot1","324","70","1","206","70","1","1","1","2","-61","0","0","0","0","1,2,3,0,-4,-4","144","0","2017-08-16 21:32:04","0","0","0","0"
"A3EJ44J2ZNRMDA","dez_1b_fix_v3_pilot1","417","70","1","454","74","2","2","1","2","184","0","0","0","0","-3,2,0,-2,4,4","97","0","2017-08-16 21:32:06","0","0","0","0"
"ALSJ5JQPC3A82","dez_1b_fix_v3_pilot1","188","70","1","240","70","1","-2","1","2","-63","0","0","0","0","-2,-1,4,-3,-5,-5","145","0","2017-08-16 21:32:09","0","0","0","0"
"A3EJ44J2ZNRMDA","dez_1b_fix_v3_pilot1","379","70","1","349","74","2","2","1","2","186","0","0","0","0","-3,2,3,-1,1,1","98","0","2017-08-16 21:32:12","0","0","0","0"
"ALSJ5JQPC3A82","dez_1b_fix_v3_pilot1","189","70","1","116","70","1","-4","1","2","-67","0","0","0","0","-4,-4,5,1,-3,-3","146","0","2017-08-16 21:32:14","0","0","0","0"
"A3EJ44J2ZNRMDA","dez_1b_fix_v3_pilot1","386","70","1","373","74","2","2","1","2","188","0","0","0","0","-4,2,5,0,-2,-2","99","0","2017-08-16 21:32:17","0","0","0","0"
"ALSJ5JQPC3A82","dez_1b_fix_v3_pilot1","132","70","1","138","70","1","-3","0","4","-70","0","0","0","0","-3,-2,4,0,-3,-3","147","0","2017-08-16 21:32:19","0","0","0","0"
"A3EJ44J2ZNRMDA","dez_1b_fix_v3_pilot1","402","70","1","352","74","2","4","1","2","192","0","0","0","0","-3,4,3,-1,-3,-3","100","0","2017-08-16 21:32:23","0","0","0","0"
"ALSJ5JQPC3A82","dez_1b_fix_v3_pilot1","122","74","2","172","74","2","-3","0","4","-73","0","0","0","0","-4,2,2,-2,-3,-3","148","0","2017-08-16 21:32:24","0","0","0","0"
"A3EJ44J2ZNRMDA","dez_1b_fix_v3_pilot1","647","70","1","449","74","2","4","1","2","196","0","0","0","0","-5,4,4,0,-2,-2","101","0","2017-08-16 21:32:28","0","0","0","0"
"ALSJ5JQPC3A82","dez_1b_fix_v3_pilot1","143","70","1","239","70","1","-1","1","2","-74","0","0","0","0","-1,4,2,-2,-3,-3","149","0","2017-08-16 21:32:29","0","0","0","0"
"ALSJ5JQPC3A82","dez_1b_fix_v3_pilot1","268","70","1","397","70","1","-1","1","2","-75","0","0","0","0","-1,0,0,-4,1,1","150","0","2017-08-16 21:32:34","0","0","0","0"
"A3EJ44J2ZNRMDA","dez_1b_fix_v3_pilot1","798","70","1","373","74","2","2","1","2","198","0","0","0","0","-5,2,4,1,-2,-2","102","0","2017-08-16 21:32:34","0","0","0","0"
"A3EJ44J2ZNRMDA","dez_1b_fix_v3_pilot1","429","70","1","433","74","2","5","1","2","203","0","0","0","0","-4,5,4,0,-1,-1","103","0","2017-08-16 21:32:40","0","0","0","0"
"ALSJ5JQPC3A82","dez_1b_fix_v3_pilot1","582","70","1","431","70","1","0","1","2","-75","0","0","0","0","0,-2,1,-3,1,1","151","0","2017-08-16 21:32:40","0","0","0","0"
"A3EJ44J2ZNRMDA","dez_1b_fix_v3_pilot1","559","70","1","346","74","2","-1","0","4","202","0","0","0","0","-4,4,5,-1,-1,-1","104","0","2017-08-16 21:32:45","0","0","0","0"
"ALSJ5JQPC3A82","dez_1b_fix_v3_pilot1","549","70","1","780","70","1","-3","0","4","-78","0","0","0","0","2,-2,4,1,-3,-3","152","0","2017-08-16 21:32:46","0","0","0","0"
"A3EJ44J2ZNRMDA","dez_1b_fix_v3_pilot1","607","70","1","562","74","2","3","1","2","205","0","0","0","0","-3,3,5,1,-1,-1","105","0","2017-08-16 21:32:51","0","0","0","0"
"ALSJ5JQPC3A82","dez_1b_fix_v3_pilot1","1122","70","1","60","70","1","-4","0","4","-82","0","0","0","0","1,-5,5,-1,-4,-4","153","0","2017-08-16 21:32:52","0","0","0","0"
"A3EJ44J2ZNRMDA","dez_1b_fix_v3_pilot1","785","70","1","333","74","2","4","1","2","209","0","0","0","0","-2,4,4,0,-2,-2","106","0","2017-08-16 21:32:57","0","0","0","0"
"ALSJ5JQPC3A82","dez_1b_fix_v3_pilot1","1561","70","1","195","70","1","1","1","2","-81","0","0","0","0","1,-4,5,0,-2,-2","154","0","2017-08-16 21:32:58","0","0","0","0"
"A3EJ44J2ZNRMDA","dez_1b_fix_v3_pilot1","637","70","1","405","74","2","4","1","2","213","0","0","0","0","0,4,4,1,-2,-2","107","0","2017-08-16 21:33:03","0","0","0","0"
"ALSJ5JQPC3A82","dez_1b_fix_v3_pilot1","390","70","1","251","70","1","-2","0","4","-83","0","0","0","0","2,-1,4,1,-2,-2","155","0","2017-08-16 21:33:03","0","0","0","0"
"A3EJ44J2ZNRMDA","dez_1b_fix_v3_pilot1","473","70","1","440","74","2","1","1","2","214","0","0","0","0","2,1,4,0,-3,-3","108","0","2017-08-16 21:33:08","0","0","0","0"
"ALSJ5JQPC3A82","dez_1b_fix_v3_pilot1","358","70","1","127","70","1","3","1","2","-80","0","0","0","0","3,-1,4,-1,-3,-3","156","0","2017-08-16 21:33:09","0","0","0","0"
"ALSJ5JQPC3A82","dez_1b_fix_v3_pilot1","244","70","1","93","70","1","5","1","2","-75","0","0","0","0","5,-4,3,-1,-2,-2","157","0","2017-08-16 21:33:14","0","0","0","0"
"A3EJ44J2ZNRMDA","dez_1b_fix_v3_pilot1","480","70","1","396","74","2","-1","1","2","213","0","0","0","0","2,-1,4,0,-3,-3","109","0","2017-08-16 21:33:14","0","0","0","0"
"ALSJ5JQPC3A82","dez_1b_fix_v3_pilot1","41","70","1","83","70","1","-1","0","4","-76","0","0","0","0","3,-5,4,-1,-1,-1","158","0","2017-08-16 21:33:18","0","0","0","0"
"A3EJ44J2ZNRMDA","dez_1b_fix_v3_pilot1","336","74","2","1439","70","1","-5","0","4","208","0","0","0","0","1,0,5,2,-5,-5","110","0","2017-08-16 21:33:20","0","0","0","0"
"ALSJ5JQPC3A82","dez_1b_fix_v3_pilot1","52","70","1","161","70","1","2","1","2","-74","0","0","0","0","2,-4,4,0,-1,-1","159","0","2017-08-16 21:33:23","0","0","0","0"
"A3EJ44J2ZNRMDA","dez_1b_fix_v3_pilot1","457","74","2","701","74","2","2","1","3","210","0","0","0","0","3,0,4,2,-5,-5","111","0","2017-08-16 21:33:26","0","0","0","0"
"ALSJ5JQPC3A82","dez_1b_fix_v3_pilot1","459","70","1","409","70","1","2","1","2","-72","0","0","0","0","2,-4,4,-2,-1,-1","160","0","2017-08-16 21:33:29","0","0","0","0"
"A3EJ44J2ZNRMDA","dez_1b_fix_v3_pilot1","425","74","2","464","74","2","4","1","3","214","0","0","0","0","0,2,4,4,-4,-4","112","0","2017-08-16 21:33:32","0","0","0","0"
"ALSJ5JQPC3A82","dez_1b_fix_v3_pilot1","245","70","1","250","70","1","1","1","2","-71","0","0","0","0","1,-4,5,-2,-1,-1","161","0","2017-08-16 21:33:34","0","0","0","0"
"A3EJ44J2ZNRMDA","dez_1b_fix_v3_pilot1","445","74","2","585","74","2","5","1","3","219","0","0","0","0","1,3,4,5,-4,-4","113","0","2017-08-16 21:33:37","0","0","0","0"
"ALSJ5JQPC3A82","dez_1b_fix_v3_pilot1","88","74","2","184","74","2","-3","1","3","-74","0","0","0","0","-1,-4,4,-3,-1,-1","162","0","2017-08-16 21:33:39","0","0","0","0"
"A3EJ44J2ZNRMDA","dez_1b_fix_v3_pilot1","369","74","2","331","74","2","4","1","3","223","0","0","0","0","2,1,1,4,-3,-3","114","0","2017-08-16 21:33:43","0","0","0","0"
"ALSJ5JQPC3A82","dez_1b_fix_v3_pilot1","200","74","2","173","74","2","-3","1","3","-77","0","0","0","0","-1,-4,4,-3,1,1","163","0","2017-08-16 21:33:44","0","0","0","0"
"A3EJ44J2ZNRMDA","dez_1b_fix_v3_pilot1","315","74","2","320","74","2","-1","0","4","222","0","0","0","0","1,1,-1,2,-1,-1","115","0","2017-08-16 21:33:48","0","0","0","0"
"ALSJ5JQPC3A82","dez_1b_fix_v3_pilot1","65","74","2","184","74","2","-5","1","3","-82","0","0","0","0","0,-4,4,-5,-1,-1","164","0","2017-08-16 21:33:49","0","0","0","0"
"A3EJ44J2ZNRMDA","dez_1b_fix_v3_pilot1","376","74","2","508","74","2","3","1","3","225","0","0","0","0","4,2,2,3,-2,-2","116","0","2017-08-16 21:33:54","0","0","0","0"
"ALSJ5JQPC3A82","dez_1b_fix_v3_pilot1","8","74","2","183","74","2","-5","1","3","-87","0","0","0","0","0,-4,4,-5,-3,-3","165","0","2017-08-16 21:33:54","0","0","0","0"
"ALSJ5JQPC3A82","dez_1b_fix_v3_pilot1","582","74","2","138","74","2","-5","0","4","-92","0","0","0","0","-1,-4,4,-3,-5,-5","166","0","2017-08-16 21:33:59","0","0","0","0"
"A3EJ44J2ZNRMDA","dez_1b_fix_v3_pilot1","399","74","2","1169","70","1","-1","0","4","224","0","0","0","0","4,1,1,3,-1,-1","117","0","2017-08-16 21:34:00","0","0","0","0"
"ALSJ5JQPC3A82","dez_1b_fix_v3_pilot1","268","74","2","71","74","2","-1","1","3","-93","0","0","0","0","-3,-3,5,-1,-3,-3","167","0","2017-08-16 21:34:04","0","0","0","0"
"A3EJ44J2ZNRMDA","dez_1b_fix_v3_pilot1","527","74","2","561","74","2","3","1","3","227","0","0","0","0","4,1,3,3,-2,-2","118","0","2017-08-16 21:34:05","0","0","0","0"
"ALSJ5JQPC3A82","dez_1b_fix_v3_pilot1","53","74","2","734","70","1","3","1","3","-90","0","0","0","0","-3,-2,3,-4,-5,-5","168","0","2017-08-16 21:34:09","0","0","0","0"
"A3EJ44J2ZNRMDA","dez_1b_fix_v3_pilot1","413","74","2","417","74","2","5","1","3","232","0","0","0","0","3,4,4,5,-2,-2","119","0","2017-08-16 21:34:11","0","0","0","0"
"ALSJ5JQPC3A82","dez_1b_fix_v3_pilot1","132","70","1","82","70","1","-3","1","2","-93","0","0","0","0","-3,-2,3,-5,-3,-3","169","0","2017-08-16 21:34:14","0","0","0","0"
"A3EJ44J2ZNRMDA","dez_1b_fix_v3_pilot1","513","74","2","551","74","2","5","1","3","237","0","0","0","0","4,5,1,5,1,1","120","0","2017-08-16 21:34:17","0","0","0","0"
"ALSJ5JQPC3A82","dez_1b_fix_v3_pilot1","98","70","1","37","70","1","-1","1","2","-94","0","0","0","0","-1,-1,1,-4,-3,-3","170","0","2017-08-16 21:34:19","0","0","0","0"
"A3EJ44J2ZNRMDA","dez_1b_fix_v3_pilot1","366","74","2","920","74","2","1","0","4","238","0","0","0","0","4,2,2,4,1,1","121","0","2017-08-16 21:34:23","0","0","0","0"
"ALSJ5JQPC3A82","dez_1b_fix_v3_pilot1","75","70","1","47","70","1","-3","1","2","-97","0","0","0","0","-3,1,1,-3,-4,-4","171","0","2017-08-16 21:34:24","0","0","0","0"
"A3EJ44J2ZNRMDA","dez_1b_fix_v3_pilot1","439","74","2","373","74","2","4","1","3","242","0","0","0","0","3,1,2,4,1,1","122","0","2017-08-16 21:34:28","0","0","0","0"
"ALSJ5JQPC3A82","dez_1b_fix_v3_pilot1","222","70","1","386","70","1","-2","1","2","-99","0","0","0","0","-2,0,2,-2,-3,-3","172","0","2017-08-16 21:34:29","0","0","0","0"
"A3EJ44J2ZNRMDA","dez_1b_fix_v3_pilot1","337","74","2","331","74","2","4","1","3","246","0","0","0","0","1,-3,-1,4,3,3","123","0","2017-08-16 21:34:33","0","0","0","0"
"ALSJ5JQPC3A82","dez_1b_fix_v3_pilot1","290","70","1","25","70","1","3","1","2","-96","0","0","0","0","3,2,2,-1,-4,-4","173","0","2017-08-16 21:34:34","0","0","0","0"
"ALSJ5JQPC3A82","dez_1b_fix_v3_pilot1","109","70","1","161","70","1","2","1","2","-94","0","0","0","0","2,1,3,0,-4,-4","174","0","2017-08-16 21:34:39","0","0","0","0"
"A3EJ44J2ZNRMDA","dez_1b_fix_v3_pilot1","577","74","2","656","74","2","4","1","3","250","0","0","0","0","2,-4,1,4,5,5","124","0","2017-08-16 21:34:39","0","0","0","0"
"A3EJ44J2ZNRMDA","dez_1b_fix_v3_pilot1","455","74","2","316","74","2","5","1","3","255","0","0","0","0","1,-4,2,5,4,4","125","0","2017-08-16 21:34:45","0","0","0","0"
"A3EJ44J2ZNRMDA","dez_1b_fix_v3_pilot1","369","74","2","407","74","2","5","1","3","260","0","0","0","0","2,-2,3,5,3,3","126","0","2017-08-16 21:34:50","0","0","0","0"
"A3EJ44J2ZNRMDA","dez_1b_fix_v3_pilot1","327","74","2","367","74","2","2","1","3","262","0","0","0","0","3,1,3,2,3,3","127","0","2017-08-16 21:34:56","0","0","0","0"
"A3EJ44J2ZNRMDA","dez_1b_fix_v3_pilot1","331","74","2","429","74","2","0","1","3","262","0","0","0","0","4,0,3,0,3,3","128","0","2017-08-16 21:35:01","0","0","0","0"
"A3EJ44J2ZNRMDA","dez_1b_fix_v3_pilot1","480","70","1","620","70","1","4","1","2","266","0","0","0","0","4,0,2,-1,5,5","129","0","2017-08-16 21:35:07","0","0","0","0"
"A3EJ44J2ZNRMDA","dez_1b_fix_v3_pilot1","366","70","1","339","70","1","5","0","4","271","0","0","0","0","3,-1,3,-2,5,5","130","0","2017-08-16 21:35:12","0","0","0","0"
"A3EJ44J2ZNRMDA","dez_1b_fix_v3_pilot1","392","70","1","425","70","1","3","1","2","274","0","0","0","0","3,2,3,-4,3,3","131","0","2017-08-16 21:35:18","0","0","0","0"
"A3EJ44J2ZNRMDA","dez_1b_fix_v3_pilot1","481","70","1","513","70","1","-1","1","2","273","0","0","0","0","-1,-1,3,-3,5,5","132","0","2017-08-16 21:35:23","0","0","0","0"
"A3EJ44J2ZNRMDA","dez_1b_fix_v3_pilot1","565","70","1","438","74","2","-1","1","2","272","0","0","0","0","-4,-1,1,-3,2,2","133","0","2017-08-16 21:35:29","0","0","0","0"
"A3EJ44J2ZNRMDA","dez_1b_fix_v3_pilot1","418","74","2","384","70","1","4","1","3","276","0","0","0","0","-5,-2,4,-2,1,1","134","0","2017-08-16 21:35:34","0","0","0","0"
"A3EJ44J2ZNRMDA","dez_1b_fix_v3_pilot1","373","74","2","527","70","1","2","1","3","278","0","0","0","0","-4,-1,2,-5,2,2","135","0","2017-08-16 21:35:40","0","0","0","0"
"A3EJ44J2ZNRMDA","dez_1b_fix_v3_pilot1","388","74","2","492","70","1","4","0","4","282","0","0","0","0","-4,0,5,-4,4,4","136","0","2017-08-16 21:35:45","0","0","0","0"
"A3EJ44J2ZNRMDA","dez_1b_fix_v3_pilot1","388","74","2","404","70","1","5","1","3","287","0","0","0","0","-2,2,5,-5,5,5","137","0","2017-08-16 21:35:51","0","0","0","0"
"A3EJ44J2ZNRMDA","dez_1b_fix_v3_pilot1","441","74","2","509","70","1","4","1","3","291","0","0","0","0","-3,2,4,-4,4,4","138","0","2017-08-16 21:35:57","0","0","0","0"
"A3EJ44J2ZNRMDA","dez_1b_fix_v3_pilot1","458","74","2","549","70","1","4","1","3","295","0","0","0","0","0,1,4,-3,5,5","139","0","2017-08-16 21:36:02","0","0","0","0"
"A3EJ44J2ZNRMDA","dez_1b_fix_v3_pilot1","455","74","2","380","70","1","3","1","3","298","0","0","0","0","-2,2,3,-2,3,3","140","0","2017-08-16 21:36:08","0","0","0","0"
"A3EJ44J2ZNRMDA","dez_1b_fix_v3_pilot1","412","74","2","881","70","1","3","0","4","301","0","0","0","0","0,1,3,-1,3,3","141","0","2017-08-16 21:36:14","0","0","0","0"
"A3EJ44J2ZNRMDA","dez_1b_fix_v3_pilot1","646","74","2","514","70","1","4","1","3","305","0","0","0","0","1,0,4,-1,3,3","142","0","2017-08-16 21:36:19","0","0","0","0"
"A3EJ44J2ZNRMDA","dez_1b_fix_v3_pilot1","304","74","2","1133","70","1","4","1","3","309","0","0","0","0","3,1,4,-2,-2,-2","143","0","2017-08-16 21:36:26","0","0","0","0"
"A3EJ44J2ZNRMDA","dez_1b_fix_v3_pilot1","435","74","2","523","70","1","4","1","3","313","0","0","0","0","5,3,4,0,1,1","144","0","2017-08-16 21:36:31","0","0","0","0"
"A3EJ44J2ZNRMDA","dez_1b_fix_v3_pilot1","342","74","2","457","70","1","1","0","4","314","0","0","0","0","4,1,1,0,1,1","145","0","2017-08-16 21:36:37","0","0","0","0"
"A3EJ44J2ZNRMDA","dez_1b_fix_v3_pilot1","327","74","2","427","70","1","0","1","3","314","0","0","0","0","4,4,0,2,2,2","146","0","2017-08-16 21:36:42","0","0","0","0"
"A3EJ44J2ZNRMDA","dez_1b_fix_v3_pilot1","789","70","1","365","74","2","2","1","2","316","0","0","0","0","3,2,-2,0,1,1","147","0","2017-08-16 21:36:48","0","0","0","0"
"A3EJ44J2ZNRMDA","dez_1b_fix_v3_pilot1","370","70","1","99","74","2","1","1","2","317","0","0","0","0","2,1,-2,1,1,1","148","0","2017-08-16 21:36:53","0","0","0","0"
"A3EJ44J2ZNRMDA","dez_1b_fix_v3_pilot1","376","70","1","432","74","2","2","1","2","319","0","0","0","0","0,2,-2,4,-1,-1","149","0","2017-08-16 21:36:58","0","0","0","0"
"A3EJ44J2ZNRMDA","dez_1b_fix_v3_pilot1","348","70","1","449","74","2","4","1","2","323","0","0","0","0","2,4,-2,4,-1,-1","150","0","2017-08-16 21:37:04","0","0","0","0"
"A3EJ44J2ZNRMDA","dez_1b_fix_v3_pilot1","429","70","1","425","74","2","-1","0","4","322","0","0","0","0","2,2,-2,3,-1,-1","151","0","2017-08-16 21:37:09","0","0","0","0"
"A3EJ44J2ZNRMDA","dez_1b_fix_v3_pilot1","394","70","1","519","74","2","-1","0","4","321","0","0","0","0","-2,0,-2,5,-1,-1","152","0","2017-08-16 21:37:15","0","0","0","0"
"A3EJ44J2ZNRMDA","dez_1b_fix_v3_pilot1","314","70","1","517","74","2","-1","1","2","320","0","0","0","0","-3,-1,0,4,-2,-2","153","0","2017-08-16 21:37:21","0","0","0","0"
"A3EJ44J2ZNRMDA","dez_1b_fix_v3_pilot1","698","74","2","500","74","2","-4","0","4","316","0","0","0","0","-2,-2,0,2,-4,-4","154","0","2017-08-16 21:37:26","0","0","0","0"
"A3EJ44J2ZNRMDA","dez_1b_fix_v3_pilot1","493","74","2","685","74","2","2","1","3","318","0","0","0","0","-3,-2,1,2,-5,-5","155","0","2017-08-16 21:37:32","0","0","0","0"
"A3EJ44J2ZNRMDA","dez_1b_fix_v3_pilot1","1322","74","2","399","74","2","2","1","3","320","0","0","0","0","-5,2,-1,2,-4,-4","156","0","2017-08-16 21:37:39","0","0","0","0"
"A3EJ44J2ZNRMDA","dez_1b_fix_v3_pilot1","745","74","2","886","70","1","-2","0","4","318","0","0","0","0","-1,1,-1,2,-2,-2","157","0","2017-08-16 21:37:45","0","0","0","0"
"A3EJ44J2ZNRMDA","dez_1b_fix_v3_pilot1","769","74","2","407","74","2","4","1","3","322","0","0","0","0","-2,4,-2,4,-1,-1","158","0","2017-08-16 21:37:51","0","0","0","0"
"A3EJ44J2ZNRMDA","dez_1b_fix_v3_pilot1","438","74","2","472","74","2","3","1","3","325","0","0","0","0","-2,2,0,3,-2,-2","159","0","2017-08-16 21:37:56","0","0","0","0"
"A3EJ44J2ZNRMDA","dez_1b_fix_v3_pilot1","359","74","2","883","70","1","-2","0","4","323","0","0","0","0","-3,0,-1,2,-2,-2","160","0","2017-08-16 21:38:02","0","0","0","0"
"A3EJ44J2ZNRMDA","dez_1b_fix_v3_pilot1","409","74","2","801","74","2","-2","0","4","321","0","0","0","0","-4,1,0,2,-2,-2","161","0","2017-08-16 21:38:08","0","0","0","0"
"A3EJ44J2ZNRMDA","dez_1b_fix_v3_pilot1","422","74","2","404","74","2","0","1","3","321","0","0","0","0","-4,0,-1,0,-1,-1","162","0","2017-08-16 21:38:14","0","0","0","0"
"A3EJ44J2ZNRMDA","dez_1b_fix_v3_pilot1","437","70","1","358","70","1","-3","1","2","318","0","0","0","0","-3,1,0,0,-2,-2","163","0","2017-08-16 21:38:19","0","0","0","0"
"A3EJ44J2ZNRMDA","dez_1b_fix_v3_pilot1","412","70","1","615","74","2","-2","1","2","316","0","0","0","0","-4,-2,1,-2,-5,-5","164","0","2017-08-16 21:38:25","0","0","0","0"
"A3EJ44J2ZNRMDA","dez_1b_fix_v3_pilot1","549","74","2","355","74","2","-5","0","4","311","0","0","0","0","-4,-2,0,-1,-5,-5","165","0","2017-08-16 21:38:30","0","0","0","0"
"A3EJ44J2ZNRMDA","dez_1b_fix_v3_pilot1","404","74","2","355","74","2","0","1","3","311","0","0","0","0","-3,-4,2,0,-3,-3","166","0","2017-08-16 21:38:36","0","0","0","0"
"A3EJ44J2ZNRMDA","dez_1b_fix_v3_pilot1","406","74","2","441","70","1","2","1","3","313","0","0","0","0","-4,-4,2,1,-2,-2","167","0","2017-08-16 21:38:41","0","0","0","0"
"A3EJ44J2ZNRMDA","dez_1b_fix_v3_pilot1","374","74","2","537","70","1","0","1","3","313","0","0","0","0","-4,-2,0,2,-2,-2","168","0","2017-08-16 21:38:47","0","0","0","0"
"A3EJ44J2ZNRMDA","dez_1b_fix_v3_pilot1","408","74","2","532","70","1","-4","1","3","309","0","0","0","0","-4,-3,-4,3,-2,-2","169","0","2017-08-16 21:38:52","0","0","0","0"
"A3EJ44J2ZNRMDA","dez_1b_fix_v3_pilot1","378","74","2","464","74","2","4","1","3","313","0","0","0","0","-3,-2,-4,4,-1,-1","170","0","2017-08-16 21:38:58","0","0","0","0"
"A3EJ44J2ZNRMDA","dez_1b_fix_v3_pilot1","374","74","2","674","74","2","3","1","3","316","0","0","0","0","-2,-3,-5,3,2,2","171","0","2017-08-16 21:39:04","0","0","0","0"
"A3EJ44J2ZNRMDA","dez_1b_fix_v3_pilot1","615","74","2","517","74","2","5","1","3","321","0","0","0","0","0,-2,-5,5,3,3","172","0","2017-08-16 21:39:09","0","0","0","0"
"A3EJ44J2ZNRMDA","dez_1b_fix_v3_pilot1","443","74","2","528","74","2","4","1","3","325","0","0","0","0","3,0,-5,4,3,3","173","0","2017-08-16 21:39:15","0","0","0","0"
"A3EJ44J2ZNRMDA","dez_1b_fix_v3_pilot1","495","74","2","386","74","2","3","1","3","328","0","0","0","0","0,2,-4,3,4,4","174","0","2017-08-16 21:39:21","0","0","0","0"
"A1UWJTUVGAAF6D","dez_1b_fix_v3_pilot1","1319","70","1","1535","74","2","2","0","4","2","1","0","0","0","-4,-3,5,-3,2,2","0","0","2017-08-16 23:06:12","0","0","0","0"
"A1UWJTUVGAAF6D","dez_1b_fix_v3_pilot1","582","70","1","1366","70","1","-3","1","2","-1","1","0","0","0","-3,-4,3,-2,2,2","1","0","2017-08-16 23:06:20","0","0","0","0"
"A1UWJTUVGAAF6D","dez_1b_fix_v3_pilot1","764","70","1","1410","74","2","-5","1","2","-6","1","0","0","0","-1,-5,3,0,1,1","2","0","2017-08-16 23:06:27","0","0","0","0"
"A1UWJTUVGAAF6D","dez_1b_fix_v3_pilot1","552","74","2","1414","74","2","2","1","3","-4","1","0","0","0","-1,-2,2,2,1,1","3","0","2017-08-16 23:06:35","0","0","0","0"
"A1UWJTUVGAAF6D","dez_1b_fix_v3_pilot1","478","74","2","1005","70","1","-1","1","3","-5","1","0","0","0","-1,-2,-1,1,0,0","4","0","2017-08-16 23:06:42","0","0","0","0"
"A1UWJTUVGAAF6D","dez_1b_fix_v3_pilot1","322","74","2","1197","74","2","-1","1","3","-6","1","0","0","0","-3,2,-2,-1,0,0","5","0","2017-08-16 23:06:49","0","0","0","0"
"A1UWJTUVGAAF6D","dez_1b_fix_v3_pilot1","3552","70","1","2615","74","2","2","1","2","-4","1","0","0","0","-3,2,-3,0,3,3","6","0","2017-08-16 23:07:01","0","0","0","0"
"A1UWJTUVGAAF6D","dez_1b_fix_v3_pilot1","539","70","1","1513","70","1","2","0","4","-2","1","0","0","0","-4,2,-4,1,2,2","7","0","2017-08-16 23:07:08","0","0","0","0"
"A1UWJTUVGAAF6D","dez_1b_fix_v3_pilot1","448","70","1","610","74","2","1","1","2","-1","1","0","0","0","-4,1,-4,3,3,3","8","0","2017-08-16 23:07:15","0","0","0","0"
"A1UWJTUVGAAF6D","dez_1b_fix_v3_pilot1","609","70","1","566","74","2","3","1","2","2","1","0","0","0","0,3,-4,2,5,5","9","0","2017-08-16 23:07:22","0","0","0","0"
"A1UWJTUVGAAF6D","dez_1b_fix_v3_pilot1","379","70","1","573","74","2","4","1","2","6","1","0","0","0","2,4,-4,1,2,2","10","0","2017-08-16 23:07:28","0","0","0","0"
"A1UWJTUVGAAF6D","dez_1b_fix_v3_pilot1","347","70","1","515","74","2","3","1","2","9","1","0","0","0","2,3,-5,4,3,3","11","0","2017-08-16 23:07:34","0","0","0","0"
"A1UWJTUVGAAF6D","dez_1b_fix_v3_pilot1","517","70","1","1217","74","2","3","0","4","12","1","0","0","0","3,4,-2,2,3,3","12","0","2017-08-16 23:07:42","0","0","0","0"
"A1UWJTUVGAAF6D","dez_1b_fix_v3_pilot1","511","70","1","536","74","2","4","1","2","16","1","0","0","0","-1,4,-5,3,3,3","13","0","2017-08-16 23:07:48","0","0","0","0"
"A1UWJTUVGAAF6D","dez_1b_fix_v3_pilot1","471","70","1","509","74","2","3","1","2","19","1","0","0","0","-1,3,-3,5,4,4","14","0","2017-08-16 23:07:55","0","0","0","0"
"A1UWJTUVGAAF6D","dez_1b_fix_v3_pilot1","570","70","1","512","74","2","3","1","2","22","1","0","0","0","-2,3,-3,5,3,3","15","0","2017-08-16 23:08:01","0","0","0","0"
"A1UWJTUVGAAF6D","dez_1b_fix_v3_pilot1","505","70","1","516","74","2","1","1","2","23","1","0","0","0","-3,1,-1,5,4,4","16","0","2017-08-16 23:08:08","0","0","0","0"
"A1UWJTUVGAAF6D","dez_1b_fix_v3_pilot1","483","74","2","1157","74","2","3","1","3","26","1","0","0","0","-3,-1,-2,3,-1,-1","17","0","2017-08-16 23:08:15","0","0","0","0"
"A1UWJTUVGAAF6D","dez_1b_fix_v3_pilot1","426","74","2","851","74","2","-1","0","4","25","1","0","0","0","-1,1,-1,4,-1,-1","18","0","2017-08-16 23:08:22","0","0","0","0"
"A1UWJTUVGAAF6D","dez_1b_fix_v3_pilot1","367","74","2","481","74","2","3","1","3","28","1","0","0","0","-1,4,-2,3,-2,-2","19","0","2017-08-16 23:08:28","0","0","0","0"
"A1UWJTUVGAAF6D","dez_1b_fix_v3_pilot1","683","74","2","499","74","2","4","1","3","32","1","0","0","0","-3,3,-2,4,-1,-1","20","0","2017-08-16 23:08:35","0","0","0","0"
"A1UWJTUVGAAF6D","dez_1b_fix_v3_pilot1","546","74","2","578","74","2","3","1","3","35","1","0","0","0","-4,2,-3,3,-3,-3","21","0","2017-08-16 23:08:42","0","0","0","0"
"A1UWJTUVGAAF6D","dez_1b_fix_v3_pilot1","473","74","2","566","70","1","1","1","3","36","1","0","0","0","-3,5,1,4,-4,-4","22","0","2017-08-16 23:08:48","0","0","0","0"
"A1UWJTUVGAAF6D","dez_1b_fix_v3_pilot1","398","74","2","444","74","2","4","1","3","40","1","0","0","0","-4,3,0,4,-5,-5","23","0","2017-08-16 23:08:55","0","0","0","0"
"A1UWJTUVGAAF6D","dez_1b_fix_v3_pilot1","358","74","2","991","74","2","-4","0","4","36","1","0","0","0","-4,2,-2,4,-4,-4","24","0","2017-08-16 23:09:02","0","0","0","0"
"A1UWJTUVGAAF6D","dez_1b_fix_v3_pilot1","318","74","2","407","74","2","5","1","3","41","1","0","0","0","-5,1,-2,5,-2,-2","25","0","2017-08-16 23:09:08","0","0","0","0"
"A1UWJTUVGAAF6D","dez_1b_fix_v3_pilot1","346","74","2","491","74","2","4","1","3","45","1","0","0","0","-4,0,-1,4,-4,-4","26","0","2017-08-16 23:09:14","0","0","0","0"
"A1UWJTUVGAAF6D","dez_1b_fix_v3_pilot1","315","74","2","799","74","2","-3","0","4","42","1","0","0","0","-4,1,1,5,-3,-3","27","0","2017-08-16 23:09:21","0","0","0","0"
"A1UWJTUVGAAF6D","dez_1b_fix_v3_pilot1","401","74","2","490","74","2","5","1","3","47","1","0","0","0","-1,1,-1,5,-1,-1","28","0","2017-08-16 23:09:27","0","0","0","0"
"A1UWJTUVGAAF6D","dez_1b_fix_v3_pilot1","468","74","2","513","74","2","3","1","3","50","1","0","0","0","1,4,2,3,1,1","29","0","2017-08-16 23:09:34","0","0","0","0"
"A1UWJTUVGAAF6D","dez_1b_fix_v3_pilot1","404","74","2","469","74","2","5","1","3","55","1","0","0","0","-1,2,2,5,-1,-1","30","0","2017-08-16 23:09:40","0","0","0","0"
"A1UWJTUVGAAF6D","dez_1b_fix_v3_pilot1","384","74","2","479","74","2","5","1","3","60","1","0","0","0","-3,3,2,5,1,1","31","0","2017-08-16 23:09:47","0","0","0","0"
"A1UWJTUVGAAF6D","dez_1b_fix_v3_pilot1","343","74","2","470","74","2","2","1","3","62","1","0","0","0","-4,1,4,2,2,2","32","0","2017-08-16 23:09:53","0","0","0","0"
"A1UWJTUVGAAF6D","dez_1b_fix_v3_pilot1","510","74","2","451","74","2","1","1","3","63","1","0","0","0","-5,2,3,1,2,2","33","0","2017-08-16 23:10:00","0","0","0","0"
"A1UWJTUVGAAF6D","dez_1b_fix_v3_pilot1","483","74","2","517","70","1","0","1","3","63","1","0","0","0","-3,3,0,1,2,2","34","0","2017-08-16 23:10:06","0","0","0","0"
"A1UWJTUVGAAF6D","dez_1b_fix_v3_pilot1","884","70","1","860","74","2","3","1","2","66","1","0","0","0","-1,3,-1,0,4,4","35","0","2017-08-16 23:10:13","0","0","0","0"
"A1UWJTUVGAAF6D","dez_1b_fix_v3_pilot1","655","70","1","724","70","1","-1","1","2","65","1","0","0","0","-1,3,-1,2,3,3","36","0","2017-08-16 23:10:20","0","0","0","0"
"A1UWJTUVGAAF6D","dez_1b_fix_v3_pilot1","431","70","1","472","74","2","5","1","2","70","1","0","0","0","-1,5,-5,-1,2,2","37","0","2017-08-16 23:10:27","0","0","0","0"
"A1UWJTUVGAAF6D","dez_1b_fix_v3_pilot1","455","70","1","508","74","2","3","1","2","73","1","0","0","0","2,3,-5,-2,3,3","38","0","2017-08-16 23:10:33","0","0","0","0"
"A1UWJTUVGAAF6D","dez_1b_fix_v3_pilot1","735","70","1","982","74","2","1","0","4","74","1","0","0","0","2,2,-4,-2,1,1","39","0","2017-08-16 23:10:41","0","0","0","0"
"A1UWJTUVGAAF6D","dez_1b_fix_v3_pilot1","677","70","1","492","74","2","3","1","2","23","0","0","0","0","-2,3,0,-5,-1,-1","0","0","2017-08-16 23:11:56","0","0","0","0"
"A1UWJTUVGAAF6D","dez_1b_fix_v3_pilot1","372","70","1","398","74","2","5","1","2","28","0","0","0","0","-1,5,-2,-3,-1,-1","1","0","2017-08-16 23:12:02","0","0","0","0"
"A1UWJTUVGAAF6D","dez_1b_fix_v3_pilot1","502","70","1","637","74","2","3","1","2","31","0","0","0","0","1,3,-1,-5,1,1","2","0","2017-08-16 23:12:08","0","0","0","0"
"A1UWJTUVGAAF6D","dez_1b_fix_v3_pilot1","431","70","1","423","74","2","4","1","2","35","0","0","0","0","4,4,0,-3,-3,-3","3","0","2017-08-16 23:12:13","0","0","0","0"
"A1UWJTUVGAAF6D","dez_1b_fix_v3_pilot1","537","70","1","455","74","2","-5","0","4","30","0","0","0","0","3,4,0,-5,-5,-5","4","0","2017-08-16 23:12:19","0","0","0","0"
"A1UWJTUVGAAF6D","dez_1b_fix_v3_pilot1","356","70","1","445","74","2","5","1","2","35","0","0","0","0","0,5,0,-3,-2,-2","5","0","2017-08-16 23:12:24","0","0","0","0"
"A1UWJTUVGAAF6D","dez_1b_fix_v3_pilot1","482","70","1","666","74","2","-3","0","4","32","0","0","0","0","1,5,2,-3,-3,-3","6","0","2017-08-16 23:12:30","0","0","0","0"
"A1UWJTUVGAAF6D","dez_1b_fix_v3_pilot1","347","70","1","382","74","2","2","1","2","34","0","0","0","0","-1,2,5,-4,-2,-2","7","0","2017-08-16 23:12:36","0","0","0","0"
"A1UWJTUVGAAF6D","dez_1b_fix_v3_pilot1","483","70","1","613","70","1","-2","1","2","32","0","0","0","0","-2,2,5,0,-2,-2","8","0","2017-08-16 23:12:41","0","0","0","0"
"A1UWJTUVGAAF6D","dez_1b_fix_v3_pilot1","380","70","1","401","74","2","2","0","4","34","0","0","0","0","-2,2,2,-1,2,2","9","0","2017-08-16 23:12:47","0","0","0","0"
"A1UWJTUVGAAF6D","dez_1b_fix_v3_pilot1","547","74","2","524","74","2","4","1","3","38","0","0","0","0","1,0,3,4,1,1","10","0","2017-08-16 23:12:53","0","0","0","0"
"A1UWJTUVGAAF6D","dez_1b_fix_v3_pilot1","377","74","2","397","74","2","2","1","3","40","0","0","0","0","-1,0,2,2,-2,-2","11","0","2017-08-16 23:12:58","0","0","0","0"
"A1UWJTUVGAAF6D","dez_1b_fix_v3_pilot1","404","74","2","338","74","2","1","1","3","41","0","0","0","0","-1,-3,3,1,-1,-1","12","0","2017-08-16 23:13:04","0","0","0","0"
"A1UWJTUVGAAF6D","dez_1b_fix_v3_pilot1","422","74","2","391","70","1","0","1","3","41","0","0","0","0","1,-3,0,5,-1,-1","13","0","2017-08-16 23:13:09","0","0","0","0"
"A1UWJTUVGAAF6D","dez_1b_fix_v3_pilot1","485","74","2","369","74","2","3","1","3","44","0","0","0","0","-1,-4,0,3,-2,-2","14","0","2017-08-16 23:13:15","0","0","0","0"
"A1UWJTUVGAAF6D","dez_1b_fix_v3_pilot1","329","74","2","317","74","2","-2","0","4","42","0","0","0","0","-3,-3,-1,0,-2,-2","15","0","2017-08-16 23:13:20","0","0","0","0"
"A1UWJTUVGAAF6D","dez_1b_fix_v3_pilot1","321","74","2","410","74","2","-2","0","4","40","0","0","0","0","-2,-4,-1,0,-2,-2","16","0","2017-08-16 23:13:25","0","0","0","0"
"A1UWJTUVGAAF6D","dez_1b_fix_v3_pilot1","549","70","1","550","70","1","-1","1","2","39","0","0","0","0","-1,-5,-1,0,-2,-2","17","0","2017-08-16 23:13:31","0","0","0","0"
"A1UWJTUVGAAF6D","dez_1b_fix_v3_pilot1","414","70","1","420","74","2","-5","1","2","34","0","0","0","0","0,-5,-1,-1,-1,-1","18","0","2017-08-16 23:13:37","0","0","0","0"
"A1UWJTUVGAAF6D","dez_1b_fix_v3_pilot1","557","74","2","606","74","2","1","1","3","35","0","0","0","0","-1,-1,0,1,-1,-1","19","0","2017-08-16 23:13:43","0","0","0","0"
"A1UWJTUVGAAF6D","dez_1b_fix_v3_pilot1","350","74","2","678","70","1","-1","0","4","34","0","0","0","0","0,-3,-1,3,-1,-1","20","0","2017-08-16 23:13:48","0","0","0","0"
"A1UWJTUVGAAF6D","dez_1b_fix_v3_pilot1","461","74","2","639","74","2","2","1","3","36","0","0","0","0","1,-2,0,2,-3,-3","21","0","2017-08-16 23:13:54","0","0","0","0"
"A1UWJTUVGAAF6D","dez_1b_fix_v3_pilot1","430","74","2","436","70","1","-1","1","3","35","0","0","0","0","2,-1,-1,0,-1,-1","22","0","2017-08-16 23:14:00","0","0","0","0"
"A1UWJTUVGAAF6D","dez_1b_fix_v3_pilot1","362","74","2","423","74","2","-1","1","3","34","0","0","0","0","1,-2,1,-1,-3,-3","23","0","2017-08-16 23:14:05","0","0","0","0"
"A1UWJTUVGAAF6D","dez_1b_fix_v3_pilot1","352","70","1","437","70","1","0","1","2","34","0","0","0","0","0,-3,-2,-2,-3,-3","24","0","2017-08-16 23:14:11","0","0","0","0"
"A1UWJTUVGAAF6D","dez_1b_fix_v3_pilot1","416","70","1","448","74","2","-5","1","2","29","0","0","0","0","2,-5,2,-2,-4,-4","25","0","2017-08-16 23:14:16","0","0","0","0"
"A1UWJTUVGAAF6D","dez_1b_fix_v3_pilot1","458","70","1","421","70","1","2","1","2","31","0","0","0","0","2,-3,5,-2,-4,-4","26","0","2017-08-16 23:14:22","0","0","0","0"
"A1UWJTUVGAAF6D","dez_1b_fix_v3_pilot1","394","70","1","467","70","1","5","1","2","36","0","0","0","0","5,-5,3,-1,-3,-3","27","0","2017-08-16 23:14:27","0","0","0","0"
"A1UWJTUVGAAF6D","dez_1b_fix_v3_pilot1","366","70","1","652","70","1","-4","0","4","32","0","0","0","0","4,-3,3,-2,-4,-4","28","0","2017-08-16 23:14:33","0","0","0","0"
"A1UWJTUVGAAF6D","dez_1b_fix_v3_pilot1","492","70","1","468","70","1","4","1","2","36","0","0","0","0","4,-2,4,-2,-4,-4","29","0","2017-08-16 23:14:39","0","0","0","0"
"A1UWJTUVGAAF6D","dez_1b_fix_v3_pilot1","406","70","1","380","70","1","1","1","2","37","0","0","0","0","1,-2,2,1,-5,-5","30","0","2017-08-16 23:14:44","0","0","0","0"
"A1UWJTUVGAAF6D","dez_1b_fix_v3_pilot1","307","70","1","351","70","1","1","1","2","38","0","0","0","0","1,0,-2,1,-3,-3","31","0","2017-08-16 23:14:50","0","0","0","0"
"A1UWJTUVGAAF6D","dez_1b_fix_v3_pilot1","333","70","1","418","70","1","4","1","2","42","0","0","0","0","4,1,-1,0,-2,-2","32","0","2017-08-16 23:14:55","0","0","0","0"
"A1UWJTUVGAAF6D","dez_1b_fix_v3_pilot1","353","70","1","409","70","1","3","1","2","45","0","0","0","0","3,0,-2,-2,-2,-2","33","0","2017-08-16 23:15:01","0","0","0","0"
"A1UWJTUVGAAF6D","dez_1b_fix_v3_pilot1","463","70","1","435","70","1","3","1","2","48","0","0","0","0","3,-1,-3,0,-4,-4","34","0","2017-08-16 23:15:06","0","0","0","0"
"A1UWJTUVGAAF6D","dez_1b_fix_v3_pilot1","445","70","1","446","70","1","4","1","2","52","0","0","0","0","4,2,0,0,-3,-3","35","0","2017-08-16 23:15:12","0","0","0","0"
"A1UWJTUVGAAF6D","dez_1b_fix_v3_pilot1","430","70","1","335","70","1","-1","0","4","51","0","0","0","0","5,0,-1,1,-1,-1","36","0","2017-08-16 23:15:17","0","0","0","0"
"A1UWJTUVGAAF6D","dez_1b_fix_v3_pilot1","430","70","1","452","70","1","3","1","2","54","0","0","0","0","3,0,-1,-4,-4,-4","37","0","2017-08-16 23:15:23","0","0","0","0"
"A1UWJTUVGAAF6D","dez_1b_fix_v3_pilot1","305","70","1","340","70","1","4","1","2","58","0","0","0","0","4,0,-5,-3,-2,-2","38","0","2017-08-16 23:15:28","0","0","0","0"
"A1UWJTUVGAAF6D","dez_1b_fix_v3_pilot1","358","70","1","319","70","1","4","1","2","62","0","0","0","0","4,1,-4,-5,-4,-4","39","0","2017-08-16 23:15:34","0","0","0","0"
"A1UWJTUVGAAF6D","dez_1b_fix_v3_pilot1","420","70","1","403","70","1","2","1","2","64","0","0","0","0","2,5,-3,-4,-5,-5","40","0","2017-08-16 23:15:39","0","0","0","0"
"A1UWJTUVGAAF6D","dez_1b_fix_v3_pilot1","328","70","1","323","70","1","2","1","2","66","0","0","0","0","2,4,-2,-3,-2,-2","41","0","2017-08-16 23:15:44","0","0","0","0"
"A1UWJTUVGAAF6D","dez_1b_fix_v3_pilot1","318","70","1","349","70","1","4","1","2","70","0","0","0","0","4,3,-2,-5,-3,-3","42","0","2017-08-16 23:15:50","0","0","0","0"
"A1UWJTUVGAAF6D","dez_1b_fix_v3_pilot1","356","70","1","304","70","1","1","1","2","71","0","0","0","0","1,3,0,-4,-3,-3","43","0","2017-08-16 23:15:55","0","0","0","0"
"A1UWJTUVGAAF6D","dez_1b_fix_v3_pilot1","312","70","1","309","70","1","2","1","2","73","0","0","0","0","2,3,3,-2,-1,-1","44","0","2017-08-16 23:16:01","0","0","0","0"
"A1UWJTUVGAAF6D","dez_1b_fix_v3_pilot1","354","70","1","349","70","1","5","1","2","78","0","0","0","0","5,0,0,-1,-1,-1","45","0","2017-08-16 23:16:06","0","0","0","0"
"A1UWJTUVGAAF6D","dez_1b_fix_v3_pilot1","352","70","1","442","70","1","4","1","2","82","0","0","0","0","4,0,2,-4,1,1","46","0","2017-08-16 23:16:11","0","0","0","0"
"A1UWJTUVGAAF6D","dez_1b_fix_v3_pilot1","314","70","1","443","70","1","2","1","2","84","0","0","0","0","2,0,1,-4,1,1","47","0","2017-08-16 23:16:17","0","0","0","0"
"A1UWJTUVGAAF6D","dez_1b_fix_v3_pilot1","388","70","1","476","70","1","5","1","2","89","0","0","0","0","5,-1,0,-4,-2,-2","48","0","2017-08-16 23:16:22","0","0","0","0"
"A1UWJTUVGAAF6D","dez_1b_fix_v3_pilot1","333","70","1","320","70","1","4","1","2","93","0","0","0","0","4,1,3,-4,-1,-1","49","0","2017-08-16 23:16:28","0","0","0","0"
"A1UWJTUVGAAF6D","dez_1b_fix_v3_pilot1","359","70","1","303","70","1","4","1","2","97","0","0","0","0","4,0,4,-5,-1,-1","50","0","2017-08-16 23:16:33","0","0","0","0"
"A1UWJTUVGAAF6D","dez_1b_fix_v3_pilot1","334","70","1","312","70","1","4","1","2","101","0","0","0","0","4,-3,4,-5,-2,-2","51","0","2017-08-16 23:16:38","0","0","0","0"
"A1UWJTUVGAAF6D","dez_1b_fix_v3_pilot1","303","70","1","331","70","1","-4","0","4","97","0","0","0","0","4,-4,3,-4,-4,-4","52","0","2017-08-16 23:16:44","0","0","0","0"
"A1UWJTUVGAAF6D","dez_1b_fix_v3_pilot1","388","70","1","294","70","1","-3","0","4","94","0","0","0","0","4,-3,3,-3,-3,-3","53","0","2017-08-16 23:16:49","0","0","0","0"
"A1UWJTUVGAAF6D","dez_1b_fix_v3_pilot1","281","70","1","669","70","1","-2","0","4","92","0","0","0","0","4,-3,2,-5,-2,-2","54","0","2017-08-16 23:16:55","0","0","0","0"
"A1UWJTUVGAAF6D","dez_1b_fix_v3_pilot1","307","70","1","442","70","1","4","1","2","96","0","0","0","0","4,-2,4,-4,-4,-4","55","0","2017-08-16 23:17:00","0","0","0","0"
"A1UWJTUVGAAF6D","dez_1b_fix_v3_pilot1","315","70","1","352","70","1","3","1","2","99","0","0","0","0","3,0,5,-4,-4,-4","56","0","2017-08-16 23:17:06","0","0","0","0"
"A1UWJTUVGAAF6D","dez_1b_fix_v3_pilot1","337","70","1","325","70","1","4","1","2","103","0","0","0","0","4,1,5,-5,-2,-2","57","0","2017-08-16 23:17:11","0","0","0","0"
"A1UWJTUVGAAF6D","dez_1b_fix_v3_pilot1","483","70","1","326","70","1","3","1","2","106","0","0","0","0","3,1,4,-3,-2,-2","58","0","2017-08-16 23:17:16","0","0","0","0"
"A1UWJTUVGAAF6D","dez_1b_fix_v3_pilot1","327","70","1","297","70","1","2","1","2","108","0","0","0","0","2,2,1,-4,1,1","59","0","2017-08-16 23:17:22","0","0","0","0"
"A1UWJTUVGAAF6D","dez_1b_fix_v3_pilot1","319","70","1","314","70","1","1","0","4","109","0","0","0","0","1,1,2,0,1,1","60","0","2017-08-16 23:17:27","0","0","0","0"
"A1UWJTUVGAAF6D","dez_1b_fix_v3_pilot1","348","70","1","348","70","1","1","1","2","110","0","0","0","0","1,4,3,-2,3,3","61","0","2017-08-16 23:17:33","0","0","0","0"
"A1UWJTUVGAAF6D","dez_1b_fix_v3_pilot1","335","70","1","304","70","1","4","1","2","114","0","0","0","0","4,4,4,-1,3,3","62","0","2017-08-16 23:17:38","0","0","0","0"
"A1UWJTUVGAAF6D","dez_1b_fix_v3_pilot1","396","70","1","511","70","1","4","1","2","118","0","0","0","0","4,2,2,-1,5,5","63","0","2017-08-16 23:17:43","0","0","0","0"
"A1UWJTUVGAAF6D","dez_1b_fix_v3_pilot1","479","70","1","442","70","1","2","1","2","120","0","0","0","0","2,1,1,-1,5,5","64","0","2017-08-16 23:17:49","0","0","0","0"
"A1UWJTUVGAAF6D","dez_1b_fix_v3_pilot1","315","70","1","410","70","1","2","1","2","122","0","0","0","0","2,1,2,-2,3,3","65","0","2017-08-16 23:17:54","0","0","0","0"
"A1UWJTUVGAAF6D","dez_1b_fix_v3_pilot1","319","70","1","324","70","1","3","1","2","125","0","0","0","0","3,2,2,-2,5,5","66","0","2017-08-16 23:18:00","0","0","0","0"
"A1UWJTUVGAAF6D","dez_1b_fix_v3_pilot1","278","70","1","351","70","1","1","1","2","126","0","0","0","0","1,2,2,-4,2,2","67","0","2017-08-16 23:18:05","0","0","0","0"
"A1UWJTUVGAAF6D","dez_1b_fix_v3_pilot1","366","70","1","327","70","1","4","1","2","130","0","0","0","0","4,1,0,-1,4,4","68","0","2017-08-16 23:18:11","0","0","0","0"
"A1UWJTUVGAAF6D","dez_1b_fix_v3_pilot1","323","70","1","363","70","1","3","1","2","133","0","0","0","0","3,0,-1,-1,2,2","69","0","2017-08-16 23:18:16","0","0","0","0"
"A1UWJTUVGAAF6D","dez_1b_fix_v3_pilot1","712","70","1","441","70","1","-3","0","4","130","0","0","0","0","0,3,0,0,-3,-3","70","0","2017-08-16 23:18:22","0","0","0","0"
"A1UWJTUVGAAF6D","dez_1b_fix_v3_pilot1","370","70","1","456","70","1","2","1","2","132","0","0","0","0","2,2,2,-1,-2,-2","71","0","2017-08-16 23:18:27","0","0","0","0"
"A1UWJTUVGAAF6D","dez_1b_fix_v3_pilot1","538","74","2","527","74","2","-1","1","3","131","0","0","0","0","4,4,2,-1,-3,-3","72","0","2017-08-16 23:18:33","0","0","0","0"
"A1UWJTUVGAAF6D","dez_1b_fix_v3_pilot1","372","74","2","341","70","1","-2","0","4","129","0","0","0","0","2,3,3,-2,-2,-2","73","0","2017-08-16 23:18:38","0","0","0","0"
"A1UWJTUVGAAF6D","dez_1b_fix_v3_pilot1","383","74","2","450","70","1","3","1","3","132","0","0","0","0","4,2,3,-3,-2,-2","74","0","2017-08-16 23:18:44","0","0","0","0"
"A1UWJTUVGAAF6D","dez_1b_fix_v3_pilot1","451","74","2","460","70","1","-3","0","4","129","0","0","0","0","5,4,2,-3,-3,-3","75","0","2017-08-16 23:18:50","0","0","0","0"
"A1UWJTUVGAAF6D","dez_1b_fix_v3_pilot1","443","74","2","461","70","1","0","1","3","129","0","0","0","0","5,4,0,-3,-5,-5","76","0","2017-08-16 23:18:55","0","0","0","0"
"A1UWJTUVGAAF6D","dez_1b_fix_v3_pilot1","406","70","1","391","70","1","4","1","2","133","0","0","0","0","4,4,1,-2,-4,-4","77","0","2017-08-16 23:19:01","0","0","0","0"
"A1UWJTUVGAAF6D","dez_1b_fix_v3_pilot1","401","70","1","357","70","1","3","1","2","136","0","0","0","0","3,4,2,-3,-4,-4","78","0","2017-08-16 23:19:06","0","0","0","0"
"A1UWJTUVGAAF6D","dez_1b_fix_v3_pilot1","426","70","1","443","70","1","3","1","2","139","0","0","0","0","3,2,0,-3,-3,-3","79","0","2017-08-16 23:19:12","0","0","0","0"
"A1UWJTUVGAAF6D","dez_1b_fix_v3_pilot1","329","70","1","475","70","1","3","1","2","142","0","0","0","0","3,4,-1,-4,-4,-4","80","0","2017-08-16 23:19:17","0","0","0","0"
"A1UWJTUVGAAF6D","dez_1b_fix_v3_pilot1","311","70","1","303","70","1","4","1","2","146","0","0","0","0","4,4,2,-4,-5,-5","81","0","2017-08-16 23:19:23","0","0","0","0"
"A1UWJTUVGAAF6D","dez_1b_fix_v3_pilot1","313","70","1","361","70","1","5","1","2","151","0","0","0","0","5,4,2,-2,-4,-4","82","0","2017-08-16 23:19:28","0","0","0","0"
"A1UWJTUVGAAF6D","dez_1b_fix_v3_pilot1","338","70","1","265","70","1","-5","0","4","146","0","0","0","0","5,2,1,-1,-5,-5","83","0","2017-08-16 23:19:33","0","0","0","0"
"A1UWJTUVGAAF6D","dez_1b_fix_v3_pilot1","357","70","1","445","70","1","4","1","2","150","0","0","0","0","4,4,-1,-3,-4,-4","84","0","2017-08-16 23:19:39","0","0","0","0"
"A1UWJTUVGAAF6D","dez_1b_fix_v3_pilot1","311","70","1","331","70","1","2","1","2","152","0","0","0","0","2,4,2,-3,-3,-3","85","0","2017-08-16 23:19:44","0","0","0","0"
"A1UWJTUVGAAF6D","dez_1b_fix_v3_pilot1","401","70","1","443","74","2","3","1","2","155","0","0","0","0","0,3,1,-5,-1,-1","86","0","2017-08-16 23:19:50","0","0","0","0"
"A1UWJTUVGAAF6D","dez_1b_fix_v3_pilot1","359","70","1","363","74","2","4","1","2","159","0","0","0","0","1,4,0,-2,1,1","87","0","2017-08-16 23:19:55","0","0","0","0"
"A1UWJTUVGAAF6D","dez_1b_fix_v3_pilot1","332","70","1","431","74","2","2","1","2","161","0","0","0","0","-1,2,-1,-3,3,3","88","0","2017-08-16 23:20:00","0","0","0","0"
"A1UWJTUVGAAF6D","dez_1b_fix_v3_pilot1","375","70","1","404","74","2","3","1","2","164","0","0","0","0","-1,3,2,-1,5,5","89","0","2017-08-16 23:20:06","0","0","0","0"
"A1UWJTUVGAAF6D","dez_1b_fix_v3_pilot1","345","70","1","475","70","1","0","1","2","164","0","0","0","0","0,5,1,-2,4,4","90","0","2017-08-16 23:20:12","0","0","0","0"
"A1UWJTUVGAAF6D","dez_1b_fix_v3_pilot1","362","70","1","326","74","2","4","0","4","168","0","0","0","0","-2,1,2,-4,4,4","91","0","2017-08-16 23:20:17","0","0","0","0"
"A1UWJTUVGAAF6D","dez_1b_fix_v3_pilot1","332","70","1","323","74","2","2","0","4","170","0","0","0","0","-1,4,0,-4,2,2","92","0","2017-08-16 23:20:22","0","0","0","0"
"A1UWJTUVGAAF6D","dez_1b_fix_v3_pilot1","399","70","1","316","74","2","2","1","2","172","0","0","0","0","2,2,1,-5,3,3","93","0","2017-08-16 23:20:28","0","0","0","0"
"A1UWJTUVGAAF6D","dez_1b_fix_v3_pilot1","451","70","1","362","74","2","1","0","4","173","0","0","0","0","3,3,0,-4,1,1","94","0","2017-08-16 23:20:33","0","0","0","0"
"A1UWJTUVGAAF6D","dez_1b_fix_v3_pilot1","315","70","1","406","74","2","1","1","2","174","0","0","0","0","4,1,1,-2,1,1","95","0","2017-08-16 23:20:39","0","0","0","0"
"A1UWJTUVGAAF6D","dez_1b_fix_v3_pilot1","373","70","1","295","74","2","0","1","2","174","0","0","0","0","2,0,5,2,-1,-1","96","0","2017-08-16 23:20:44","0","0","0","0"
"A1UWJTUVGAAF6D","dez_1b_fix_v3_pilot1","344","70","1","301","70","1","-3","0","4","171","0","0","0","0","1,-1,4,1,-3,-3","97","0","2017-08-16 23:20:49","0","0","0","0"
"A1UWJTUVGAAF6D","dez_1b_fix_v3_pilot1","353","70","1","645","70","1","-4","0","4","167","0","0","0","0","1,-2,2,1,-4,-4","98","0","2017-08-16 23:20:55","0","0","0","0"
"A1UWJTUVGAAF6D","dez_1b_fix_v3_pilot1","322","70","1","335","70","1","5","1","2","172","0","0","0","0","5,-1,5,3,-5,-5","99","0","2017-08-16 23:21:00","0","0","0","0"
"A1UWJTUVGAAF6D","dez_1b_fix_v3_pilot1","432","70","1","293","70","1","1","1","2","173","0","0","0","0","1,1,2,0,-5,-5","100","0","2017-08-16 23:21:06","0","0","0","0"
"A1UWJTUVGAAF6D","dez_1b_fix_v3_pilot1","337","70","1","442","70","1","0","1","2","173","0","0","0","0","0,3,-1,-2,-4,-4","101","0","2017-08-16 23:21:11","0","0","0","0"
"A1UWJTUVGAAF6D","dez_1b_fix_v3_pilot1","401","70","1","351","70","1","0","1","2","173","0","0","0","0","0,3,0,-3,-4,-4","102","0","2017-08-16 23:21:17","0","0","0","0"
"A1UWJTUVGAAF6D","dez_1b_fix_v3_pilot1","318","74","2","572","74","2","-3","1","3","170","0","0","0","0","-2,3,0,-3,-4,-4","103","0","2017-08-16 23:21:22","0","0","0","0"
"A1UWJTUVGAAF6D","dez_1b_fix_v3_pilot1","312","74","2","494","70","1","-1","0","4","169","0","0","0","0","-4,0,2,-5,-1,-1","104","0","2017-08-16 23:21:28","0","0","0","0"
"A1UWJTUVGAAF6D","dez_1b_fix_v3_pilot1","383","74","2","325","70","1","3","1","3","172","0","0","0","0","-2,0,3,-5,1,1","105","0","2017-08-16 23:21:33","0","0","0","0"
"A1UWJTUVGAAF6D","dez_1b_fix_v3_pilot1","466","74","2","271","70","1","5","1","3","177","0","0","0","0","-3,1,5,-3,-1,-1","106","0","2017-08-16 23:21:39","0","0","0","0"
"A1UWJTUVGAAF6D","dez_1b_fix_v3_pilot1","372","74","2","300","70","1","3","1","3","180","0","0","0","0","-1,0,3,-3,-1,-1","107","0","2017-08-16 23:21:44","0","0","0","0"
"A1UWJTUVGAAF6D","dez_1b_fix_v3_pilot1","294","74","2","267","70","1","-4","1","3","176","0","0","0","0","0,2,-4,-4,-3,-3","108","0","2017-08-16 23:21:49","0","0","0","0"
"A1UWJTUVGAAF6D","dez_1b_fix_v3_pilot1","658","74","2","298","74","2","-5","1","3","171","0","0","0","0","-1,0,-1,-5,-5,-5","109","0","2017-08-16 23:21:55","0","0","0","0"
"A1UWJTUVGAAF6D","dez_1b_fix_v3_pilot1","362","70","1","671","70","1","-2","0","4","169","0","0","0","0","-1,2,-1,-3,-2,-2","110","0","2017-08-16 23:22:01","0","0","0","0"
"A1UWJTUVGAAF6D","dez_1b_fix_v3_pilot1","302","70","1","281","70","1","-4","0","4","165","0","0","0","0","-3,3,1,0,-4,-4","111","0","2017-08-16 23:22:06","0","0","0","0"
"A1UWJTUVGAAF6D","dez_1b_fix_v3_pilot1","384","70","1","322","70","1","-3","1","2","162","0","0","0","0","-3,5,0,2,-1,-1","112","0","2017-08-16 23:22:11","0","0","0","0"
"A1UWJTUVGAAF6D","dez_1b_fix_v3_pilot1","370","70","1","403","74","2","-4","0","4","158","0","0","0","0","-5,4,1,5,-4,-4","113","0","2017-08-16 23:22:17","0","0","0","0"
"A1UWJTUVGAAF6D","dez_1b_fix_v3_pilot1","369","70","1","288","74","2","-4","0","4","154","0","0","0","0","-3,4,1,3,-4,-4","114","0","2017-08-16 23:22:22","0","0","0","0"
"A1UWJTUVGAAF6D","dez_1b_fix_v3_pilot1","305","70","1","378","74","2","4","1","2","158","0","0","0","0","-4,4,-1,3,-4,-4","115","0","2017-08-16 23:22:27","0","0","0","0"
"A1UWJTUVGAAF6D","dez_1b_fix_v3_pilot1","336","70","1","317","74","2","-4","0","4","154","0","0","0","0","-4,2,-3,1,-4,-4","116","0","2017-08-16 23:22:33","0","0","0","0"
"A1UWJTUVGAAF6D","dez_1b_fix_v3_pilot1","301","70","1","297","74","2","-1","1","2","153","0","0","0","0","-5,-1,-2,3,-3,-3","117","0","2017-08-16 23:22:38","0","0","0","0"
"A1UWJTUVGAAF6D","dez_1b_fix_v3_pilot1","355","70","1","359","74","2","-5","1","2","148","0","0","0","0","-2,-5,-4,4,-3,-3","118","0","2017-08-16 23:22:44","0","0","0","0"
"A1UWJTUVGAAF6D","dez_1b_fix_v3_pilot1","529","74","2","463","74","2","-1","0","4","147","0","0","0","0","-3,-5,-3,5,-1,-1","119","0","2017-08-16 23:22:49","0","0","0","0"
"A1UWJTUVGAAF6D","dez_1b_fix_v3_pilot1","636","74","2","365","70","1","-5","1","3","142","0","0","0","0","-2,-3,-5,3,-4,-4","120","0","2017-08-16 23:22:55","0","0","0","0"
"A1UWJTUVGAAF6D","dez_1b_fix_v3_pilot1","320","74","2","274","74","2","1","1","3","143","0","0","0","0","-4,-4,-3,1,-4,-4","121","0","2017-08-16 23:23:00","0","0","0","0"
"A1UWJTUVGAAF6D","dez_1b_fix_v3_pilot1","423","74","2","523","74","2","-3","0","4","140","0","0","0","0","-4,-5,-4,3,-3,-3","122","0","2017-08-16 23:23:06","0","0","0","0"
"A1UWJTUVGAAF6D","dez_1b_fix_v3_pilot1","396","74","2","292","74","2","3","1","3","143","0","0","0","0","-1,-3,-3,3,-5,-5","123","0","2017-08-16 23:23:11","0","0","0","0"
"A1UWJTUVGAAF6D","dez_1b_fix_v3_pilot1","296","74","2","325","74","2","4","1","3","147","0","0","0","0","-1,-1,-3,4,-5,-5","124","0","2017-08-16 23:23:17","0","0","0","0"
