"subject","version","rt1","key1","Action1","rt2","key2","Action2","Re","common","S2","score","practice","reverse_mapping_1","reverse_mapping_2","timeouts","vals","trial_index","time_elapsed","stamp","rews1a1","rews1a2","rews2a1","rews2a2"
"A2VRDE2FHCBMF8","dez_1b_fix_v2_pilot1","787","70","1","635","70","1","2","1","2","2","1","0","0","0","2,4,-5,3,-2,-2","0","0","2017-08-15 17:25:48","0","0","0","0"
"A2VRDE2FHCBMF8","dez_1b_fix_v2_pilot1","465","70","1","431","74","2","3","1","2","5","1","0","0","0","3,3,-4,3,-2,-2","1","0","2017-08-15 17:25:54","0","0","0","0"
"A2VRDE2FHCBMF8","dez_1b_fix_v2_pilot1","266","70","1","9","74","2","4","1","2","9","1","0","0","0","2,4,-3,4,-4,-4","2","0","2017-08-15 17:26:00","0","0","0","0"
"A2VRDE2FHCBMF8","dez_1b_fix_v2_pilot1","528","70","1","449","74","2","4","1","2","13","1","0","0","0","0,4,-1,4,-4,-4","3","0","2017-08-15 17:26:07","0","0","0","0"
"A2VRDE2FHCBMF8","dez_1b_fix_v2_pilot1","365","70","1","213","74","2","5","1","2","18","1","0","0","0","1,5,-1,3,-4,-4","4","0","2017-08-15 17:26:13","0","0","0","0"
"A2VRDE2FHCBMF8","dez_1b_fix_v2_pilot1","300","70","1","266","74","2","5","1","2","23","1","0","0","0","3,5,-1,3,-2,-2","5","0","2017-08-15 17:26:19","0","0","0","0"
"A2VRDE2FHCBMF8","dez_1b_fix_v2_pilot1","294","70","1","372","74","2","3","1","2","26","1","0","0","0","3,3,-4,3,-1,-1","6","0","2017-08-15 17:26:25","0","0","0","0"
"A2VRDE2FHCBMF8","dez_1b_fix_v2_pilot1","349","70","1","394","74","2","1","0","4","27","1","0","0","0","5,2,-5,5,1,1","7","0","2017-08-15 17:26:31","0","0","0","0"
"A2VRDE2FHCBMF8","dez_1b_fix_v2_pilot1","460","70","1","373","74","2","0","0","4","27","1","0","0","0","2,3,-4,4,0,0","8","0","2017-08-15 17:26:38","0","0","0","0"
"A2VRDE2FHCBMF8","dez_1b_fix_v2_pilot1","433","70","1","393","74","2","4","1","2","31","1","0","0","0","2,4,-4,4,-1,-1","9","0","2017-08-15 17:26:44","0","0","0","0"
"A2VRDE2FHCBMF8","dez_1b_fix_v2_pilot1","534","70","1","279","74","2","2","1","2","33","1","0","0","0","2,2,-4,2,-4,-4","10","0","2017-08-15 17:26:50","0","0","0","0"
"A2VRDE2FHCBMF8","dez_1b_fix_v2_pilot1","487","70","1","327","74","2","-3","0","4","30","1","0","0","0","2,4,-2,2,-3,-3","11","0","2017-08-15 17:26:57","0","0","0","0"
"A2VRDE2FHCBMF8","dez_1b_fix_v2_pilot1","1223","70","1","351","74","2","5","1","2","35","1","0","0","0","2,5,-4,3,-3,-3","12","0","2017-08-15 17:27:04","0","0","0","0"
"A2VRDE2FHCBMF8","dez_1b_fix_v2_pilot1","618","70","1","606","74","2","4","1","2","39","1","0","0","0","1,4,-3,5,-3,-3","13","0","2017-08-15 17:27:11","0","0","0","0"
"A2VRDE2FHCBMF8","dez_1b_fix_v2_pilot1","860","70","1","649","74","2","-3","0","4","36","1","0","0","0","0,3,-5,5,-3,-3","14","0","2017-08-15 17:27:18","0","0","0","0"
"A2VRDE2FHCBMF8","dez_1b_fix_v2_pilot1","408","70","1","1055","74","2","3","1","2","39","1","0","0","0","-1,3,-5,1,-2,-2","15","0","2017-08-15 17:27:25","0","0","0","0"
"A2VRDE2FHCBMF8","dez_1b_fix_v2_pilot1","950","70","1","467","74","2","3","1","2","42","1","0","0","0","-3,3,-5,1,-1,-1","16","0","2017-08-15 17:27:32","0","0","0","0"
"A2VRDE2FHCBMF8","dez_1b_fix_v2_pilot1","545","70","1","553","74","2","-1","1","2","41","1","0","0","0","-3,-1,-3,1,0,0","17","0","2017-08-15 17:27:38","0","0","0","0"
"A2VRDE2FHCBMF8","dez_1b_fix_v2_pilot1","416","70","1","693","74","2","-1","1","2","40","1","0","0","0","0,-1,-4,-3,2,2","18","0","2017-08-15 17:27:45","0","0","0","0"
"A2VRDE2FHCBMF8","dez_1b_fix_v2_pilot1","908","70","1","600","74","2","-2","1","2","38","1","0","0","0","1,-2,-2,-1,2,2","19","0","2017-08-15 17:27:52","0","0","0","0"
"A2VRDE2FHCBMF8","dez_1b_fix_v2_pilot1","1114","70","1","78","74","2","2","0","4","40","1","0","0","0","1,-3,-5,-4,2,2","20","0","2017-08-15 17:27:59","0","0","0","0"
"A2VRDE2FHCBMF8","dez_1b_fix_v2_pilot1","364","70","1","566","74","2","-4","1","2","36","1","0","0","0","0,-4,-5,-3,2,2","21","0","2017-08-15 17:28:05","0","0","0","0"
"A2VRDE2FHCBMF8","dez_1b_fix_v2_pilot1","1051","70","1","474","74","2","4","0","4","40","1","0","0","0","2,-5,-4,-2,4,4","22","0","2017-08-15 17:28:12","0","0","0","0"
"A2VRDE2FHCBMF8","dez_1b_fix_v2_pilot1","385","70","1","304","74","2","4","0","4","44","1","0","0","0","2,-2,-3,-2,4,4","23","0","2017-08-15 17:28:19","0","0","0","0"
"A2VRDE2FHCBMF8","dez_1b_fix_v2_pilot1","23","70","1","158","74","2","-1","1","2","43","1","0","0","0","3,-1,-4,-1,4,4","24","0","2017-08-15 17:28:24","0","0","0","0"
"A2VRDE2FHCBMF8","dez_1b_fix_v2_pilot1","406","70","1","327","74","2","-1","1","2","42","1","0","0","0","2,-1,-2,-4,5,5","25","0","2017-08-15 17:28:31","0","0","0","0"
"A2VRDE2FHCBMF8","dez_1b_fix_v2_pilot1","248","70","1","1238","70","1","4","1","2","46","1","0","0","0","4,-4,-3,-1,4,4","26","0","2017-08-15 17:28:38","0","0","0","0"
"A2VRDE2FHCBMF8","dez_1b_fix_v2_pilot1","577","70","1","1254","74","2","-3","1","2","43","1","0","0","0","4,-3,-2,-3,5,5","27","0","2017-08-15 17:28:45","0","0","0","0"
"A2VRDE2FHCBMF8","dez_1b_fix_v2_pilot1","967","70","1","306","74","2","-2","1","2","41","1","0","0","0","4,-2,0,-3,3,3","28","0","2017-08-15 17:28:52","0","0","0","0"
"A2VRDE2FHCBMF8","dez_1b_fix_v2_pilot1","117","70","1","1213","74","2","-2","1","2","39","1","0","0","0","1,-2,-2,-3,3,3","29","0","2017-08-15 17:28:59","0","0","0","0"
"A2VRDE2FHCBMF8","dez_1b_fix_v2_pilot1","660","70","1","905","70","1","3","1","2","42","1","0","0","0","3,-3,0,-1,3,3","30","0","2017-08-15 17:29:06","0","0","0","0"
"A2VRDE2FHCBMF8","dez_1b_fix_v2_pilot1","600","70","1","968","74","2","-4","1","2","38","1","0","0","0","3,-4,-3,-2,1,1","31","0","2017-08-15 17:29:13","0","0","0","0"
"A2VRDE2FHCBMF8","dez_1b_fix_v2_pilot1","994","70","1","434","70","1","5","1","2","43","1","0","0","0","5,-5,-4,-1,1,1","32","0","2017-08-15 17:29:20","0","0","0","0"
"A2VRDE2FHCBMF8","dez_1b_fix_v2_pilot1","496","70","1","582","70","1","2","1","2","45","1","0","0","0","2,-3,-4,0,1,1","33","0","2017-08-15 17:29:27","0","0","0","0"
"A2VRDE2FHCBMF8","dez_1b_fix_v2_pilot1","319","70","1","290","74","2","-4","1","2","41","1","0","0","0","2,-4,-3,4,-1,-1","34","0","2017-08-15 17:29:33","0","0","0","0"
"A2VRDE2FHCBMF8","dez_1b_fix_v2_pilot1","489","70","1","751","70","1","1","1","2","42","1","0","0","0","1,-4,-1,4,0,0","35","0","2017-08-15 17:29:40","0","0","0","0"
"A2VRDE2FHCBMF8","dez_1b_fix_v2_pilot1","794","70","1","919","74","2","-5","1","2","37","1","0","0","0","2,-5,-2,3,1,1","36","0","2017-08-15 17:29:47","0","0","0","0"
"A2VRDE2FHCBMF8","dez_1b_fix_v2_pilot1","768","70","1","520","70","1","2","1","2","39","1","0","0","0","2,-4,-4,0,2,2","37","0","2017-08-15 17:29:54","0","0","0","0"
"A2VRDE2FHCBMF8","dez_1b_fix_v2_pilot1","356","74","2","376","70","1","-4","1","3","35","1","0","0","0","4,-4,-4,2,-1,-1","38","0","2017-08-15 17:30:00","0","0","0","0"
"A2VRDE2FHCBMF8","dez_1b_fix_v2_pilot1","366","74","2","246","74","2","1","1","3","36","1","0","0","0","4,-4,-3,1,-1,-1","39","0","2017-08-15 17:30:06","0","0","0","0"
"A2VRDE2FHCBMF8","dez_1b_fix_v2_pilot1","737","70","1","410","74","2","-2","1","2","18","0","0","0","0","4,-2,1,4,1,1","0","0","2017-08-15 17:31:17","0","0","0","0"
"A2VRDE2FHCBMF8","dez_1b_fix_v2_pilot1","316","74","2","455","74","2","4","1","3","22","0","0","0","0","2,3,2,4,1,1","1","0","2017-08-15 17:31:22","0","0","0","0"
"A2VRDE2FHCBMF8","dez_1b_fix_v2_pilot1","232","74","2","345","74","2","4","1","3","26","0","0","0","0","0,3,-1,4,3,3","2","0","2017-08-15 17:31:29","0","0","0","0"
"A2VRDE2FHCBMF8","dez_1b_fix_v2_pilot1","264","74","2","310","74","2","3","1","3","29","0","0","0","0","-3,5,2,3,5,5","3","0","2017-08-15 17:31:33","0","0","0","0"
"A2VRDE2FHCBMF8","dez_1b_fix_v2_pilot1","294","74","2","263","70","1","5","0","4","34","0","0","0","0","1,5,2,2,5,5","4","0","2017-08-15 17:31:38","0","0","0","0"
"A2VRDE2FHCBMF8","dez_1b_fix_v2_pilot1","261","74","2","281","70","1","5","0","4","39","0","0","0","0","3,3,0,2,5,5","5","0","2017-08-15 17:31:44","0","0","0","0"
"A2VRDE2FHCBMF8","dez_1b_fix_v2_pilot1","278","74","2","305","70","1","0","1","3","39","0","0","0","0","5,3,0,0,2,2","6","0","2017-08-15 17:31:49","0","0","0","0"
"A2VRDE2FHCBMF8","dez_1b_fix_v2_pilot1","283","70","1","285","70","1","5","1","2","44","0","0","0","0","5,3,1,2,5,5","7","0","2017-08-15 17:31:54","0","0","0","0"
"A2VRDE2FHCBMF8","dez_1b_fix_v2_pilot1","271","70","1","273","70","1","4","1","2","48","0","0","0","0","4,4,0,1,4,4","8","0","2017-08-15 17:31:59","0","0","0","0"
"A2VRDE2FHCBMF8","dez_1b_fix_v2_pilot1","235","70","1","258","70","1","4","1","2","52","0","0","0","0","4,4,2,0,5,5","9","0","2017-08-15 17:32:05","0","0","0","0"
"A2VRDE2FHCBMF8","dez_1b_fix_v2_pilot1","861","70","1","361","70","1","5","1","2","57","0","0","0","0","5,4,4,2,5,5","10","0","2017-08-15 17:32:10","0","0","0","0"
"A2VRDE2FHCBMF8","dez_1b_fix_v2_pilot1","477","70","1","408","70","1","5","1","2","62","0","0","0","0","5,4,2,2,2,2","11","0","2017-08-15 17:32:16","0","0","0","0"
"A2VRDE2FHCBMF8","dez_1b_fix_v2_pilot1","336","70","1","569","70","1","1","1","2","63","0","0","0","0","1,5,1,3,3,3","12","0","2017-08-15 17:32:22","0","0","0","0"
"A2VRDE2FHCBMF8","dez_1b_fix_v2_pilot1","315","70","1","306","74","2","3","1","2","66","0","0","0","0","0,3,1,4,4,4","13","0","2017-08-15 17:32:27","0","0","0","0"
"A2VRDE2FHCBMF8","dez_1b_fix_v2_pilot1","381","74","2","457","70","1","2","1","3","68","0","0","0","0","4,3,2,5,3,3","14","0","2017-08-15 17:32:32","0","0","0","0"
"A2VRDE2FHCBMF8","dez_1b_fix_v2_pilot1","267","74","2","616","74","2","5","1","3","73","0","0","0","0","4,5,3,5,3,3","15","0","2017-08-15 17:32:38","0","0","0","0"
"A2VRDE2FHCBMF8","dez_1b_fix_v2_pilot1","474","74","2","394","74","2","2","1","3","75","0","0","0","0","3,4,5,2,4,4","16","0","2017-08-15 17:32:44","0","0","0","0"
"A2VRDE2FHCBMF8","dez_1b_fix_v2_pilot1","335","74","2","436","70","1","3","0","4","78","0","0","0","0","2,4,3,1,3,3","17","0","2017-08-15 17:32:49","0","0","0","0"
"A2VRDE2FHCBMF8","dez_1b_fix_v2_pilot1","188","74","2","1017","70","1","3","1","3","81","0","0","0","0","4,5,3,1,5,5","18","0","2017-08-15 17:32:55","0","0","0","0"
"A2VRDE2FHCBMF8","dez_1b_fix_v2_pilot1","284","74","2","389","74","2","1","1","3","82","0","0","0","0","4,4,2,1,5,5","19","0","2017-08-15 17:33:00","0","0","0","0"
"A2VRDE2FHCBMF8","dez_1b_fix_v2_pilot1","331","70","1","404","74","2","4","0","4","86","0","0","0","0","4,1,4,1,4,4","20","0","2017-08-15 17:33:06","0","0","0","0"
"A2VRDE2FHCBMF8","dez_1b_fix_v2_pilot1","423","70","1","419","70","1","3","1","2","89","0","0","0","0","3,0,4,3,3,3","21","0","2017-08-15 17:33:11","0","0","0","0"
"A2VRDE2FHCBMF8","dez_1b_fix_v2_pilot1","286","70","1","351","74","2","2","1","2","91","0","0","0","0","3,2,3,4,5,5","22","0","2017-08-15 17:33:17","0","0","0","0"
"A2VRDE2FHCBMF8","dez_1b_fix_v2_pilot1","435","70","1","950","74","2","4","1","2","95","0","0","0","0","5,4,3,3,5,5","23","0","2017-08-15 17:33:23","0","0","0","0"
"A2VRDE2FHCBMF8","dez_1b_fix_v2_pilot1","262","70","1","342","74","2","3","1","2","98","0","0","0","0","5,3,2,5,2,2","24","0","2017-08-15 17:33:28","0","0","0","0"
"A2VRDE2FHCBMF8","dez_1b_fix_v2_pilot1","602","70","1","817","70","1","3","1","2","101","0","0","0","0","3,5,3,1,3,3","25","0","2017-08-15 17:33:34","0","0","0","0"
"A2VRDE2FHCBMF8","dez_1b_fix_v2_pilot1","594","70","1","336","74","2","5","1","2","106","0","0","0","0","3,5,3,0,-1,-1","26","0","2017-08-15 17:33:40","0","0","0","0"
"A2VRDE2FHCBMF8","dez_1b_fix_v2_pilot1","271","70","1","311","74","2","4","1","2","110","0","0","0","0","3,4,3,1,2,2","27","0","2017-08-15 17:33:45","0","0","0","0"
"A2VRDE2FHCBMF8","dez_1b_fix_v2_pilot1","407","70","1","584","74","2","3","1","2","113","0","0","0","0","5,3,5,3,1,1","28","0","2017-08-15 17:33:51","0","0","0","0"
"A2VRDE2FHCBMF8","dez_1b_fix_v2_pilot1","660","70","1","409","74","2","3","1","2","116","0","0","0","0","5,3,4,3,1,1","29","0","2017-08-15 17:33:57","0","0","0","0"
"A2VRDE2FHCBMF8","dez_1b_fix_v2_pilot1","317","70","1","414","74","2","5","1","2","121","0","0","0","0","5,5,3,3,2,2","30","0","2017-08-15 17:34:02","0","0","0","0"
"A2VRDE2FHCBMF8","dez_1b_fix_v2_pilot1","358","70","1","1286","70","1","5","1","2","126","0","0","0","0","5,4,4,3,4,4","31","0","2017-08-15 17:34:08","0","0","0","0"
"A2VRDE2FHCBMF8","dez_1b_fix_v2_pilot1","396","70","1","998","70","1","5","1","2","131","0","0","0","0","5,2,5,5,4,4","32","0","2017-08-15 17:34:15","0","0","0","0"
"A2VRDE2FHCBMF8","dez_1b_fix_v2_pilot1","513","70","1","516","70","1","4","1","2","135","0","0","0","0","4,3,5,4,4,4","33","0","2017-08-15 17:34:20","0","0","0","0"
"A2VRDE2FHCBMF8","dez_1b_fix_v2_pilot1","334","74","2","662","70","1","2","1","3","137","0","0","0","0","5,2,2,3,3,3","34","0","2017-08-15 17:34:26","0","0","0","0"
"A2VRDE2FHCBMF8","dez_1b_fix_v2_pilot1","424","74","2","324","74","2","4","1","3","141","0","0","0","0","4,2,0,4,1,1","35","0","2017-08-15 17:34:32","0","0","0","0"
"A2VRDE2FHCBMF8","dez_1b_fix_v2_pilot1","309","74","2","315","74","2","3","1","3","144","0","0","0","0","5,4,1,3,3,3","36","0","2017-08-15 17:34:37","0","0","0","0"
"A2VRDE2FHCBMF8","dez_1b_fix_v2_pilot1","111","70","1","492","70","1","5","1","2","149","0","0","0","0","5,4,-1,5,3,3","37","0","2017-08-15 17:34:42","0","0","0","0"
"A2VRDE2FHCBMF8","dez_1b_fix_v2_pilot1","280","70","1","520","70","1","3","1","2","152","0","0","0","0","3,3,-3,4,5,5","38","0","2017-08-15 17:34:48","0","0","0","0"
"A2VRDE2FHCBMF8","dez_1b_fix_v2_pilot1","12","70","1","704","74","2","3","1","2","155","0","0","0","0","5,3,-2,4,5,5","39","0","2017-08-15 17:34:53","0","0","0","0"
"A2VRDE2FHCBMF8","dez_1b_fix_v2_pilot1","444","70","1","736","70","1","5","1","2","160","0","0","0","0","5,1,-1,4,3,3","40","0","2017-08-15 17:34:59","0","0","0","0"
"A2VRDE2FHCBMF8","dez_1b_fix_v2_pilot1","369","70","1","387","74","2","-1","1","2","159","0","0","0","0","3,-1,-3,4,1,1","41","0","2017-08-15 17:35:05","0","0","0","0"
"A2VRDE2FHCBMF8","dez_1b_fix_v2_pilot1","933","70","1","345","74","2","-2","1","2","157","0","0","0","0","3,-2,-2,5,1,1","42","0","2017-08-15 17:35:11","0","0","0","0"
"A2VRDE2FHCBMF8","dez_1b_fix_v2_pilot1","155","74","2","441","70","1","-1","1","3","156","0","0","0","0","3,0,-1,4,-1,-1","43","0","2017-08-15 17:35:16","0","0","0","0"
"A2VRDE2FHCBMF8","dez_1b_fix_v2_pilot1","267","70","1","416","70","1","3","1","2","159","0","0","0","0","3,0,-4,4,-2,-2","44","0","2017-08-15 17:35:21","0","0","0","0"
"A2VRDE2FHCBMF8","dez_1b_fix_v2_pilot1","262","74","2","407","70","1","-5","1","3","154","0","0","0","0","0,0,-5,4,-4,-4","45","0","2017-08-15 17:35:27","0","0","0","0"
"A2VRDE2FHCBMF8","dez_1b_fix_v2_pilot1","255","70","1","279","70","1","0","1","2","154","0","0","0","0","0,1,-4,5,-4,-4","46","0","2017-08-15 17:35:32","0","0","0","0"
"A2VRDE2FHCBMF8","dez_1b_fix_v2_pilot1","315","70","1","312","74","2","-4","0","4","150","0","0","0","0","-2,1,-3,3,-4,-4","47","0","2017-08-15 17:35:37","0","0","0","0"
"A2VRDE2FHCBMF8","dez_1b_fix_v2_pilot1","266","70","1","297","74","2","-3","0","4","147","0","0","0","0","-3,2,2,4,-3,-3","48","0","2017-08-15 17:35:43","0","0","0","0"
"A2VRDE2FHCBMF8","dez_1b_fix_v2_pilot1","284","70","1","324","74","2","1","1","2","148","0","0","0","0","-3,1,0,5,-2,-2","49","0","2017-08-15 17:35:48","0","0","0","0"
"A2VRDE2FHCBMF8","dez_1b_fix_v2_pilot1","14","70","1","460","70","1","-4","1","2","144","0","0","0","0","-4,2,2,3,-1,-1","50","0","2017-08-15 17:35:53","0","0","0","0"
"A2VRDE2FHCBMF8","dez_1b_fix_v2_pilot1","258","74","2","361","70","1","4","1","3","148","0","0","0","0","-3,4,4,5,-2,-2","51","0","2017-08-15 17:35:58","0","0","0","0"
"A2VRDE2FHCBMF8","dez_1b_fix_v2_pilot1","281","74","2","329","70","1","2","1","3","150","0","0","0","0","-4,3,2,5,-3,-3","52","0","2017-08-15 17:36:04","0","0","0","0"
"A2VRDE2FHCBMF8","dez_1b_fix_v2_pilot1","319","74","2","356","74","2","5","1","3","155","0","0","0","0","-5,2,3,5,-3,-3","53","0","2017-08-15 17:36:09","0","0","0","0"
"A2VRDE2FHCBMF8","dez_1b_fix_v2_pilot1","268","74","2","318","70","1","-4","0","4","151","0","0","0","0","-4,1,1,3,-4,-4","54","0","2017-08-15 17:36:14","0","0","0","0"
"A2VRDE2FHCBMF8","dez_1b_fix_v2_pilot1","267","74","2","309","74","2","0","1","3","151","0","0","0","0","-1,1,0,0,-3,-3","55","0","2017-08-15 17:36:20","0","0","0","0"
"A2VRDE2FHCBMF8","dez_1b_fix_v2_pilot1","68","70","1","410","70","1","1","1","2","152","0","0","0","0","1,0,3,-1,-3,-3","56","0","2017-08-15 17:36:25","0","0","0","0"
"A2VRDE2FHCBMF8","dez_1b_fix_v2_pilot1","118","70","1","365","74","2","1","1","2","153","0","0","0","0","3,1,2,-3,-5,-5","57","0","2017-08-15 17:36:30","0","0","0","0"
"A2VRDE2FHCBMF8","dez_1b_fix_v2_pilot1","376","70","1","268","70","1","4","1","2","157","0","0","0","0","4,1,3,0,-4,-4","58","0","2017-08-15 17:36:36","0","0","0","0"
"A2VRDE2FHCBMF8","dez_1b_fix_v2_pilot1","89","70","1","248","70","1","4","1","2","161","0","0","0","0","4,2,1,0,-2,-2","59","0","2017-08-15 17:36:41","0","0","0","0"
"A2VRDE2FHCBMF8","dez_1b_fix_v2_pilot1","296","70","1","263","70","1","0","1","2","161","0","0","0","0","0,1,-2,3,-3,-3","60","0","2017-08-15 17:36:46","0","0","0","0"
"A2VRDE2FHCBMF8","dez_1b_fix_v2_pilot1","281","70","1","330","74","2","2","1","2","163","0","0","0","0","3,2,-5,5,-4,-4","61","0","2017-08-15 17:36:51","0","0","0","0"
"A2VRDE2FHCBMF8","dez_1b_fix_v2_pilot1","271","70","1","283","70","1","2","1","2","165","0","0","0","0","2,2,-3,5,-4,-4","62","0","2017-08-15 17:36:57","0","0","0","0"
"A2VRDE2FHCBMF8","dez_1b_fix_v2_pilot1","1095","70","1","298","74","2","4","1","2","169","0","0","0","0","3,4,-3,5,-1,-1","63","0","2017-08-15 17:37:03","0","0","0","0"
"A2VRDE2FHCBMF8","dez_1b_fix_v2_pilot1","1587","70","1","573","74","2","4","1","2","173","0","0","0","1","3,4,-2,2,-1,-1","64","0","2017-08-15 17:37:11","0","0","0","0"
"A2VRDE2FHCBMF8","dez_1b_fix_v2_pilot1","362","70","1","324","70","1","4","1","2","177","0","0","0","0","4,3,-3,2,-1,-1","65","0","2017-08-15 17:37:17","0","0","0","0"
"A2VRDE2FHCBMF8","dez_1b_fix_v2_pilot1","444","70","1","603","74","2","2","1","2","179","0","0","0","0","2,2,-3,0,-3,-3","66","0","2017-08-15 17:37:23","0","0","0","0"
"A2VRDE2FHCBMF8","dez_1b_fix_v2_pilot1","319","70","1","1600","70","1","2","1","2","181","0","0","0","0","2,4,0,-2,-3,-3","67","0","2017-08-15 17:37:29","0","0","0","0"
"A2VRDE2FHCBMF8","dez_1b_fix_v2_pilot1","341","70","1","508","74","2","3","1","2","184","0","0","0","0","0,3,3,-4,-3,-3","68","0","2017-08-15 17:37:35","0","0","0","0"
"A2VRDE2FHCBMF8","dez_1b_fix_v2_pilot1","639","70","1","386","70","1","-1","0","4","183","0","0","0","0","2,5,2,-5,-1,-1","69","0","2017-08-15 17:37:40","0","0","0","0"
"A2VRDE2FHCBMF8","dez_1b_fix_v2_pilot1","1149","70","1","486","74","2","-3","0","4","180","0","0","0","0","2,4,-1,-3,-3,-3","70","0","2017-08-15 17:37:47","0","0","0","0"
"A2VRDE2FHCBMF8","dez_1b_fix_v2_pilot1","321","70","1","429","70","1","3","1","2","183","0","0","0","0","3,3,-2,-2,-1,-1","71","0","2017-08-15 17:37:52","0","0","0","0"
"A2VRDE2FHCBMF8","dez_1b_fix_v2_pilot1","369","70","1","990","74","2","4","1","2","187","0","0","0","0","1,4,-2,-5,-2,-2","72","0","2017-08-15 17:37:58","0","0","0","0"
"A2VRDE2FHCBMF8","dez_1b_fix_v2_pilot1","17","70","1","207","74","2","4","1","2","191","0","0","0","0","-2,4,-1,-3,-3,-3","73","0","2017-08-15 17:38:03","0","0","0","0"
"A2VRDE2FHCBMF8","dez_1b_fix_v2_pilot1","1191","74","2","311","74","2","-2","1","3","189","0","0","0","0","-1,4,1,-2,-2,-2","74","0","2017-08-15 17:38:09","0","0","0","0"
"A2VRDE2FHCBMF8","dez_1b_fix_v2_pilot1","439","70","1","431","74","2","1","1","2","190","0","0","0","0","0,1,3,-1,-2,-2","75","0","2017-08-15 17:38:15","0","0","0","0"
"A2VRDE2FHCBMF8","dez_1b_fix_v2_pilot1","302","70","1","436","70","1","-1","0","4","189","0","0","0","0","1,1,4,0,-1,-1","76","0","2017-08-15 17:38:20","0","0","0","0"
"A2VRDE2FHCBMF8","dez_1b_fix_v2_pilot1","476","70","1","434","74","2","-1","0","4","188","0","0","0","0","-1,2,4,-1,-1,-1","77","0","2017-08-15 17:38:26","0","0","0","0"
"A2VRDE2FHCBMF8","dez_1b_fix_v2_pilot1","661","74","2","733","70","1","-3","0","4","185","0","0","0","0","-1,2,2,1,-3,-3","78","0","2017-08-15 17:38:32","0","0","0","0"
"A2VRDE2FHCBMF8","dez_1b_fix_v2_pilot1","841","74","2","1533","74","2","1","0","4","186","0","0","0","0","-4,-1,4,0,1,1","79","0","2017-08-15 17:38:39","0","0","0","0"
"A2VRDE2FHCBMF8","dez_1b_fix_v2_pilot1","661","74","2","965","74","2","0","1","3","186","0","0","0","0","-4,1,4,0,-4,-4","80","0","2017-08-15 17:38:46","0","0","0","0"
"A2VRDE2FHCBMF8","dez_1b_fix_v2_pilot1","584","74","2","667","70","1","-1","0","4","185","0","0","0","0","-5,-1,4,3,-1,-1","81","0","2017-08-15 17:38:52","0","0","0","0"
"A2VRDE2FHCBMF8","dez_1b_fix_v2_pilot1","473","74","2","572","70","1","-2","0","4","183","0","0","0","0","-5,1,3,4,-2,-2","82","0","2017-08-15 17:38:57","0","0","0","0"
"A2VRDE2FHCBMF8","dez_1b_fix_v2_pilot1","1018","70","1","359","70","1","-4","1","2","179","0","0","0","0","-4,-1,1,4,-3,-3","83","0","2017-08-15 17:39:03","0","0","0","0"
"A2VRDE2FHCBMF8","dez_1b_fix_v2_pilot1","612","70","1","562","70","1","-4","1","2","175","0","0","0","0","-4,-1,3,3,-2,-2","84","0","2017-08-15 17:39:09","0","0","0","0"
"A2VRDE2FHCBMF8","dez_1b_fix_v2_pilot1","263","74","2","318","70","1","3","1","3","178","0","0","0","0","-5,-4,3,3,-4,-4","85","0","2017-08-15 17:39:15","0","0","0","0"
"A2VRDE2FHCBMF8","dez_1b_fix_v2_pilot1","250","74","2","445","74","2","3","1","3","181","0","0","0","0","-4,-4,2,3,-3,-3","86","0","2017-08-15 17:39:20","0","0","0","0"
"A2VRDE2FHCBMF8","dez_1b_fix_v2_pilot1","108","74","2","715","74","2","2","1","3","183","0","0","0","0","-5,-3,4,2,-5,-5","87","0","2017-08-15 17:39:26","0","0","0","0"
"A23GB80BDI6PPL","dez_1b_fix_v2_pilot1","2036","70","1","1165","70","1","-1","1","2","-1","1","0","0","0","-1,0,-2,-4,-2,-2","0","0","2017-08-15 17:39:29","0","0","0","0"
"A2VRDE2FHCBMF8","dez_1b_fix_v2_pilot1","735","74","2","692","70","1","-3","0","4","180","0","0","0","0","-3,-4,3,4,-3,-3","88","0","2017-08-15 17:39:32","0","0","0","0"
"A23GB80BDI6PPL","dez_1b_fix_v2_pilot1","589","74","2","828","74","2","-2","1","3","-3","1","0","0","0","-1,1,-5,-2,-1,-1","1","0","2017-08-15 17:39:36","0","0","0","0"
"A2VRDE2FHCBMF8","dez_1b_fix_v2_pilot1","462","70","1","911","70","1","-4","1","2","176","0","0","0","0","-4,-3,1,4,-2,-2","89","0","2017-08-15 17:39:38","0","0","0","0"
"A2VRDE2FHCBMF8","dez_1b_fix_v2_pilot1","3","74","2","337","74","2","5","1","3","181","0","0","0","0","-5,0,1,5,-4,-4","90","0","2017-08-15 17:39:43","0","0","0","0"
"A23GB80BDI6PPL","dez_1b_fix_v2_pilot1","677","70","1","1152","74","2","-3","0","4","-6","1","0","0","0","-2,2,-3,-1,-3,-3","2","0","2017-08-15 17:39:43","0","0","0","0"
"A2VRDE2FHCBMF8","dez_1b_fix_v2_pilot1","313","74","2","358","74","2","1","1","3","182","0","0","0","0","-3,1,0,1,-5,-5","91","0","2017-08-15 17:39:48","0","0","0","0"
"A23GB80BDI6PPL","dez_1b_fix_v2_pilot1","523","74","2","510","74","2","-4","0","4","-10","1","0","0","0","-3,3,-5,1,-4,-4","3","0","2017-08-15 17:39:50","0","0","0","0"
"A2VRDE2FHCBMF8","dez_1b_fix_v2_pilot1","262","74","2","258","70","1","2","1","3","184","0","0","0","0","-4,1,2,3,-4,-4","92","0","2017-08-15 17:39:53","0","0","0","0"
"A23GB80BDI6PPL","dez_1b_fix_v2_pilot1","627","74","2","764","70","1","-5","1","3","-15","1","0","0","0","-3,3,-5,1,-4,-4","4","0","2017-08-15 17:39:57","0","0","0","0"
"A2VRDE2FHCBMF8","dez_1b_fix_v2_pilot1","419","74","2","600","74","2","4","1","3","188","0","0","0","0","-3,1,-1,4,-4,-4","93","0","2017-08-15 17:39:59","0","0","0","0"
"A23GB80BDI6PPL","dez_1b_fix_v2_pilot1","468","74","2","439","74","2","1","1","3","-14","1","0","0","0","-3,2,-2,1,-2,-2","5","0","2017-08-15 17:40:03","0","0","0","0"
"A2VRDE2FHCBMF8","dez_1b_fix_v2_pilot1","496","74","2","503","70","1","1","1","3","189","0","0","0","0","-4,-2,1,4,-4,-4","94","0","2017-08-15 17:40:05","0","0","0","0"
"A23GB80BDI6PPL","dez_1b_fix_v2_pilot1","710","74","2","503","74","2","0","1","3","-14","1","0","0","0","-5,1,-4,0,-2,-2","6","0","2017-08-15 17:40:10","0","0","0","0"
"A2VRDE2FHCBMF8","dez_1b_fix_v2_pilot1","782","74","2","859","74","2","4","1","3","193","0","0","0","0","-4,-1,2,4,-3,-3","95","0","2017-08-15 17:40:11","0","0","0","0"
"A2VRDE2FHCBMF8","dez_1b_fix_v2_pilot1","38","74","2","368","74","2","4","1","3","197","0","0","0","0","-4,-1,0,4,3,3","96","0","2017-08-15 17:40:16","0","0","0","0"
"A23GB80BDI6PPL","dez_1b_fix_v2_pilot1","450","70","1","1231","70","1","-3","1","2","-17","1","0","0","0","-3,0,-3,0,-3,-3","7","0","2017-08-15 17:40:17","0","0","0","0"
"A2VRDE2FHCBMF8","dez_1b_fix_v2_pilot1","732","74","2","493","74","2","5","1","3","202","0","0","0","0","-5,1,-1,5,2,2","97","0","2017-08-15 17:40:22","0","0","0","0"
"A23GB80BDI6PPL","dez_1b_fix_v2_pilot1","540","70","1","740","74","2","-4","0","4","-21","1","0","0","0","-3,-2,-2,-2,-4,-4","8","0","2017-08-15 17:40:24","0","0","0","0"
"A2VRDE2FHCBMF8","dez_1b_fix_v2_pilot1","78","74","2","288","74","2","4","1","3","206","0","0","0","0","-5,2,1,4,5,5","98","0","2017-08-15 17:40:27","0","0","0","0"
"A23GB80BDI6PPL","dez_1b_fix_v2_pilot1","414","74","2","461","74","2","-4","1","3","-25","1","0","0","0","-2,-4,-5,-4,-3,-3","9","0","2017-08-15 17:40:30","0","0","0","0"
"A2VRDE2FHCBMF8","dez_1b_fix_v2_pilot1","285","74","2","393","74","2","3","1","3","209","0","0","0","0","-4,3,2,3,5,5","99","0","2017-08-15 17:40:33","0","0","0","0"
"A23GB80BDI6PPL","dez_1b_fix_v2_pilot1","579","70","1","1052","74","2","-5","1","2","-30","1","0","0","0","-1,-5,-5,-5,0,0","10","0","2017-08-15 17:40:37","0","0","0","0"
"A2VRDE2FHCBMF8","dez_1b_fix_v2_pilot1","337","74","2","390","74","2","0","1","3","209","0","0","0","0","-2,4,1,0,3,3","100","0","2017-08-15 17:40:38","0","0","0","0"
"A23GB80BDI6PPL","dez_1b_fix_v2_pilot1","227","74","2","432","74","2","-5","1","3","-35","1","0","0","0","-2,-5,-3,-5,1,1","11","0","2017-08-15 17:40:43","0","0","0","0"
"A2VRDE2FHCBMF8","dez_1b_fix_v2_pilot1","365","74","2","351","70","1","-1","1","3","208","0","0","0","0","-2,4,-1,0,2,2","101","0","2017-08-15 17:40:44","0","0","0","0"
"A2VRDE2FHCBMF8","dez_1b_fix_v2_pilot1","402","70","1","467","70","1","-2","1","2","206","0","0","0","0","-2,3,-1,-1,-1,-1","102","0","2017-08-15 17:40:49","0","0","0","0"
"A23GB80BDI6PPL","dez_1b_fix_v2_pilot1","461","74","2","390","74","2","-5","1","3","-40","1","0","0","0","-3,-5,-4,-5,3,3","12","0","2017-08-15 17:40:50","0","0","0","0"
"A2VRDE2FHCBMF8","dez_1b_fix_v2_pilot1","308","70","1","293","74","2","3","1","2","209","0","0","0","0","-1,3,-2,1,1,1","103","0","2017-08-15 17:40:55","0","0","0","0"
"A23GB80BDI6PPL","dez_1b_fix_v2_pilot1","417","74","2","504","74","2","-5","1","3","-45","1","0","0","0","-1,-3,-4,-5,4,4","13","0","2017-08-15 17:40:56","0","0","0","0"
"A2VRDE2FHCBMF8","dez_1b_fix_v2_pilot1","330","70","1","566","74","2","1","0","4","210","0","0","0","0","-1,4,-3,3,1,1","104","0","2017-08-15 17:41:00","0","0","0","0"
"A23GB80BDI6PPL","dez_1b_fix_v2_pilot1","379","74","2","401","74","2","-5","1","3","-50","1","0","0","0","-2,0,-4,-5,3,3","14","0","2017-08-15 17:41:03","0","0","0","0"
"A2VRDE2FHCBMF8","dez_1b_fix_v2_pilot1","375","70","1","167","74","2","4","1","2","214","0","0","0","0","-2,4,-3,3,2,2","105","0","2017-08-15 17:41:06","0","0","0","0"
"A23GB80BDI6PPL","dez_1b_fix_v2_pilot1","406","70","1","825","74","2","3","1","2","-47","1","0","0","0","-3,3,-5,-3,5,5","15","0","2017-08-15 17:41:09","0","0","0","0"
"A2VRDE2FHCBMF8","dez_1b_fix_v2_pilot1","582","70","1","278","74","2","4","1","2","218","0","0","0","0","-3,4,-4,3,2,2","106","0","2017-08-15 17:41:11","0","0","0","0"
"A23GB80BDI6PPL","dez_1b_fix_v2_pilot1","691","70","1","753","74","2","5","0","4","-42","1","0","0","0","-3,3,-4,-4,5,5","16","0","2017-08-15 17:41:16","0","0","0","0"
"A2VRDE2FHCBMF8","dez_1b_fix_v2_pilot1","317","70","1","309","74","2","2","0","4","220","0","0","0","0","-3,4,-5,5,2,2","107","0","2017-08-15 17:41:17","0","0","0","0"
"A2VRDE2FHCBMF8","dez_1b_fix_v2_pilot1","695","74","2","364","70","1","-5","1","3","215","0","0","0","0","-2,2,-5,5,3,3","108","0","2017-08-15 17:41:22","0","0","0","0"
"A23GB80BDI6PPL","dez_1b_fix_v2_pilot1","488","70","1","551","74","2","3","1","2","-39","1","0","0","0","-3,3,-3,-5,5,5","17","0","2017-08-15 17:41:23","0","0","0","0"
"A2VRDE2FHCBMF8","dez_1b_fix_v2_pilot1","252","70","1","400","74","2","5","1","2","220","0","0","0","0","-1,5,-5,1,2,2","109","0","2017-08-15 17:41:28","0","0","0","0"
"A23GB80BDI6PPL","dez_1b_fix_v2_pilot1","463","70","1","623","74","2","4","0","4","-35","1","0","0","0","-2,2,-3,-4,4,4","18","0","2017-08-15 17:41:29","0","0","0","0"
"A2VRDE2FHCBMF8","dez_1b_fix_v2_pilot1","883","70","1","470","74","2","4","1","2","224","0","0","0","0","1,4,-2,2,1,1","110","0","2017-08-15 17:41:34","0","0","0","0"
"A23GB80BDI6PPL","dez_1b_fix_v2_pilot1","578","70","1","795","74","2","4","1","2","-31","1","0","0","0","0,4,-1,-4,5,5","19","0","2017-08-15 17:41:36","0","0","0","0"
"A2VRDE2FHCBMF8","dez_1b_fix_v2_pilot1","352","70","1","345","74","2","-1","0","4","223","0","0","0","0","1,3,-5,3,-1,-1","111","0","2017-08-15 17:41:39","0","0","0","0"
"A23GB80BDI6PPL","dez_1b_fix_v2_pilot1","467","70","1","533","74","2","3","1","2","-28","1","0","0","0","-1,3,0,-1,5,5","20","0","2017-08-15 17:41:43","0","0","0","0"
"A2VRDE2FHCBMF8","dez_1b_fix_v2_pilot1","321","70","1","344","74","2","4","1","2","227","0","0","0","0","0,4,-5,5,1,1","112","0","2017-08-15 17:41:44","0","0","0","0"
"A23GB80BDI6PPL","dez_1b_fix_v2_pilot1","443","70","1","787","74","2","5","0","4","-23","1","0","0","0","-2,5,1,-5,5,5","21","0","2017-08-15 17:41:50","0","0","0","0"
"A2VRDE2FHCBMF8","dez_1b_fix_v2_pilot1","323","70","1","580","74","2","5","1","2","232","0","0","0","0","-1,5,-4,5,-1,-1","113","0","2017-08-15 17:41:50","0","0","0","0"
"A2VRDE2FHCBMF8","dez_1b_fix_v2_pilot1","584","70","1","175","74","2","3","1","2","235","0","0","0","0","-4,3,-3,2,-2,-2","114","0","2017-08-15 17:41:56","0","0","0","0"
"A23GB80BDI6PPL","dez_1b_fix_v2_pilot1","422","70","1","504","74","2","3","1","2","-20","1","0","0","0","-4,3,0,-3,4,4","22","0","2017-08-15 17:41:56","0","0","0","0"
"A2VRDE2FHCBMF8","dez_1b_fix_v2_pilot1","445","70","1","423","74","2","-1","0","4","234","0","0","0","0","-3,5,-4,3,-1,-1","115","0","2017-08-15 17:42:01","0","0","0","0"
"A23GB80BDI6PPL","dez_1b_fix_v2_pilot1","414","70","1","487","74","2","4","1","2","-16","1","0","0","0","-2,4,1,-4,2,2","23","0","2017-08-15 17:42:03","0","0","0","0"
"A2VRDE2FHCBMF8","dez_1b_fix_v2_pilot1","22","74","2","366","70","1","1","0","4","235","0","0","0","0","-4,4,-4,3,1,1","116","0","2017-08-15 17:42:06","0","0","0","0"
"A23GB80BDI6PPL","dez_1b_fix_v2_pilot1","475","70","1","491","74","2","5","1","2","-11","1","0","0","0","-3,5,3,-1,3,3","24","0","2017-08-15 17:42:09","0","0","0","0"
"A2VRDE2FHCBMF8","dez_1b_fix_v2_pilot1","84","70","1","449","70","1","-5","1","2","230","0","0","0","0","-5,4,-4,3,3,3","117","0","2017-08-15 17:42:12","0","0","0","0"
"A23GB80BDI6PPL","dez_1b_fix_v2_pilot1","542","70","1","694","74","2","4","0","4","-7","1","0","0","0","-1,4,3,-1,4,4","25","0","2017-08-15 17:42:16","0","0","0","0"
"A2VRDE2FHCBMF8","dez_1b_fix_v2_pilot1","688","74","2","300","70","1","-2","1","3","228","0","0","0","0","-1,5,-2,3,4,4","118","0","2017-08-15 17:42:17","0","0","0","0"
"A23GB80BDI6PPL","dez_1b_fix_v2_pilot1","504","70","1","459","74","2","4","0","4","-3","1","0","0","0","-1,3,1,-2,4,4","26","0","2017-08-15 17:42:22","0","0","0","0"
"A2VRDE2FHCBMF8","dez_1b_fix_v2_pilot1","244","74","2","372","74","2","2","1","3","230","0","0","0","0","1,5,-4,2,4,4","119","0","2017-08-15 17:42:23","0","0","0","0"
"A23GB80BDI6PPL","dez_1b_fix_v2_pilot1","438","70","1","614","74","2","3","1","2","0","1","0","0","0","2,3,2,-3,2,2","27","0","2017-08-15 17:42:29","0","0","0","0"
"A2VRDE2FHCBMF8","dez_1b_fix_v2_pilot1","1382","74","2","205","74","2","4","0","4","234","0","0","0","0","-2,5,-4,4,4,4","120","0","2017-08-15 17:42:29","0","0","0","0"
"A2VRDE2FHCBMF8","dez_1b_fix_v2_pilot1","515","74","2","453","74","2","4","1","3","238","0","0","0","0","-2,3,-3,4,4,4","121","0","2017-08-15 17:42:35","0","0","0","0"
"A23GB80BDI6PPL","dez_1b_fix_v2_pilot1","402","70","1","510","74","2","3","1","2","3","1","0","0","0","2,3,4,-2,0,0","28","0","2017-08-15 17:42:35","0","0","0","0"
"A2VRDE2FHCBMF8","dez_1b_fix_v2_pilot1","181","74","2","325","74","2","2","1","3","240","0","0","0","0","-2,1,-4,2,2,2","122","0","2017-08-15 17:42:40","0","0","0","0"
"A23GB80BDI6PPL","dez_1b_fix_v2_pilot1","341","70","1","490","74","2","3","1","2","6","1","0","0","0","1,3,4,-2,2,2","29","0","2017-08-15 17:42:42","0","0","0","0"
"A2VRDE2FHCBMF8","dez_1b_fix_v2_pilot1","237","74","2","646","74","2","3","1","3","243","0","0","0","0","-4,0,-4,3,4,4","123","0","2017-08-15 17:42:45","0","0","0","0"
"A23GB80BDI6PPL","dez_1b_fix_v2_pilot1","400","70","1","488","74","2","5","1","2","11","1","0","0","0","3,5,4,-1,2,2","30","0","2017-08-15 17:42:48","0","0","0","0"
"A2VRDE2FHCBMF8","dez_1b_fix_v2_pilot1","266","70","1","342","74","2","4","0","4","247","0","0","0","0","-3,3,-4,0,4,4","124","0","2017-08-15 17:42:51","0","0","0","0"
"A23GB80BDI6PPL","dez_1b_fix_v2_pilot1","460","70","1","382","74","2","4","1","2","15","1","0","0","0","5,4,4,0,-1,-1","31","0","2017-08-15 17:42:54","0","0","0","0"
"A2VRDE2FHCBMF8","dez_1b_fix_v2_pilot1","329","74","2","472","74","2","1","1","3","248","0","0","0","0","-2,3,-5,1,2,2","125","0","2017-08-15 17:42:56","0","0","0","0"
"A23GB80BDI6PPL","dez_1b_fix_v2_pilot1","477","70","1","364","74","2","4","1","2","19","1","0","0","0","4,4,4,3,2,2","32","0","2017-08-15 17:43:01","0","0","0","0"
"A2VRDE2FHCBMF8","dez_1b_fix_v2_pilot1","479","74","2","576","70","1","4","0","4","252","0","0","0","0","-1,0,-5,1,4,4","126","0","2017-08-15 17:43:02","0","0","0","0"
"A23GB80BDI6PPL","dez_1b_fix_v2_pilot1","437","70","1","317","74","2","3","1","2","22","1","0","0","0","3,3,4,3,5,5","33","0","2017-08-15 17:43:07","0","0","0","0"
"A2VRDE2FHCBMF8","dez_1b_fix_v2_pilot1","759","74","2","574","70","1","-2","1","3","250","0","0","0","0","-3,4,-2,0,4,4","127","0","2017-08-15 17:43:08","0","0","0","0"
"A2VRDE2FHCBMF8","dez_1b_fix_v2_pilot1","268","74","2","386","74","2","2","1","3","252","0","0","0","0","-1,2,0,2,5,5","128","0","2017-08-15 17:43:13","0","0","0","0"
"A23GB80BDI6PPL","dez_1b_fix_v2_pilot1","425","70","1","454","74","2","5","0","4","27","1","0","0","0","3,5,5,3,5,5","34","0","2017-08-15 17:43:13","0","0","0","0"
"A2VRDE2FHCBMF8","dez_1b_fix_v2_pilot1","285","70","1","291","70","1","3","0","4","255","0","0","0","0","-1,1,-2,1,3,3","129","0","2017-08-15 17:43:19","0","0","0","0"
"A23GB80BDI6PPL","dez_1b_fix_v2_pilot1","412","70","1","460","74","2","4","1","2","31","1","0","0","0","2,4,5,2,3,3","35","0","2017-08-15 17:43:20","0","0","0","0"
"A2VRDE2FHCBMF8","dez_1b_fix_v2_pilot1","445","70","1","540","70","1","2","1","2","257","0","0","0","0","2,1,-1,2,3,3","130","0","2017-08-15 17:43:24","0","0","0","0"
"A23GB80BDI6PPL","dez_1b_fix_v2_pilot1","400","70","1","510","74","2","2","0","4","33","1","0","0","0","3,3,5,-1,2,2","36","0","2017-08-15 17:43:26","0","0","0","0"
"A2VRDE2FHCBMF8","dez_1b_fix_v2_pilot1","624","70","1","367","74","2","0","1","2","257","0","0","0","0","4,0,-1,3,4,4","131","0","2017-08-15 17:43:30","0","0","0","0"
"A23GB80BDI6PPL","dez_1b_fix_v2_pilot1","453","74","2","649","74","2","2","0","4","35","1","0","0","0","4,2,3,-2,2,2","37","0","2017-08-15 17:43:33","0","0","0","0"
"A2VRDE2FHCBMF8","dez_1b_fix_v2_pilot1","493","70","1","376","70","1","4","1","2","261","0","0","0","0","4,2,0,5,3,3","132","0","2017-08-15 17:43:36","0","0","0","0"
"A23GB80BDI6PPL","dez_1b_fix_v2_pilot1","436","74","2","982","70","1","5","1","3","40","1","0","0","0","4,3,5,-5,-1,-1","38","0","2017-08-15 17:43:40","0","0","0","0"
"A2VRDE2FHCBMF8","dez_1b_fix_v2_pilot1","400","70","1","335","70","1","3","1","2","264","0","0","0","0","3,1,0,5,3,3","133","0","2017-08-15 17:43:41","0","0","0","0"
"A23GB80BDI6PPL","dez_1b_fix_v2_pilot1","474","74","2","500","70","1","4","1","3","44","1","0","0","0","4,1,4,-2,0,0","39","0","2017-08-15 17:43:46","0","0","0","0"
"A2VRDE2FHCBMF8","dez_1b_fix_v2_pilot1","437","70","1","366","74","2","1","1","2","265","0","0","0","0","3,1,2,5,3,3","134","0","2017-08-15 17:43:47","0","0","0","0"
"A2VRDE2FHCBMF8","dez_1b_fix_v2_pilot1","139","70","1","350","70","1","0","1","2","265","0","0","0","0","0,3,0,4,2,2","135","0","2017-08-15 17:43:52","0","0","0","0"
"A2VRDE2FHCBMF8","dez_1b_fix_v2_pilot1","239","74","2","297","74","2","4","1","3","269","0","0","0","0","3,4,1,4,-2,-2","136","0","2017-08-15 17:43:57","0","0","0","0"
"A2VRDE2FHCBMF8","dez_1b_fix_v2_pilot1","279","74","2","317","74","2","2","1","3","271","0","0","0","0","4,2,2,2,-4,-4","137","0","2017-08-15 17:44:02","0","0","0","0"
"A2VRDE2FHCBMF8","dez_1b_fix_v2_pilot1","229","74","2","310","70","1","2","1","3","273","0","0","0","0","4,3,2,-1,-1,-1","138","0","2017-08-15 17:44:08","0","0","0","0"
"A2VRDE2FHCBMF8","dez_1b_fix_v2_pilot1","536","74","2","372","74","2","-2","1","3","271","0","0","0","0","4,3,5,-2,1,1","139","0","2017-08-15 17:44:13","0","0","0","0"
"A2VRDE2FHCBMF8","dez_1b_fix_v2_pilot1","38","74","2","366","74","2","0","1","3","271","0","0","0","0","2,4,3,0,-2,-2","140","0","2017-08-15 17:44:18","0","0","0","0"
"A2VRDE2FHCBMF8","dez_1b_fix_v2_pilot1","355","70","1","274","74","2","4","1","2","275","0","0","0","0","2,4,0,-1,-2,-2","141","0","2017-08-15 17:44:24","0","0","0","0"
"A2VRDE2FHCBMF8","dez_1b_fix_v2_pilot1","282","70","1","238","74","2","4","1","2","279","0","0","0","0","2,4,-1,0,-2,-2","142","0","2017-08-15 17:44:29","0","0","0","0"
"A2VRDE2FHCBMF8","dez_1b_fix_v2_pilot1","317","70","1","331","74","2","4","1","2","283","0","0","0","0","5,4,2,1,-1,-1","143","0","2017-08-15 17:44:34","0","0","0","0"
"A2VRDE2FHCBMF8","dez_1b_fix_v2_pilot1","514","70","1","618","74","2","-1","0","4","282","0","0","0","0","5,2,1,0,-1,-1","144","0","2017-08-15 17:44:40","0","0","0","0"
"A23GB80BDI6PPL","dez_1b_fix_v2_pilot1","1600","70","1","628","74","2","0","1","2","20","0","0","0","0","-3,0,0,-3,-3,-3","0","0","2017-08-15 17:44:45","0","0","0","0"
"A2VRDE2FHCBMF8","dez_1b_fix_v2_pilot1","883","70","1","125","74","2","-2","0","4","280","0","0","0","0","4,0,3,1,-2,-2","145","0","2017-08-15 17:44:46","0","0","0","0"
"A23GB80BDI6PPL","dez_1b_fix_v2_pilot1","419","70","1","457","70","1","-3","1","2","17","0","0","0","0","-3,0,-2,-1,-3,-3","1","0","2017-08-15 17:44:51","0","0","0","0"
"A2VRDE2FHCBMF8","dez_1b_fix_v2_pilot1","601","70","1","390","74","2","-1","0","4","279","0","0","0","0","3,-1,2,0,-1,-1","146","0","2017-08-15 17:44:52","0","0","0","0"
"A23GB80BDI6PPL","dez_1b_fix_v2_pilot1","542","74","2","843","74","2","-2","1","3","15","0","0","0","0","-3,1,-2,-2,-5,-5","2","0","2017-08-15 17:44:57","0","0","0","0"
"A2VRDE2FHCBMF8","dez_1b_fix_v2_pilot1","377","70","1","432","74","2","-1","1","2","278","0","0","0","0","1,-1,1,2,-4,-4","147","0","2017-08-15 17:44:57","0","0","0","0"
"A23GB80BDI6PPL","dez_1b_fix_v2_pilot1","651","74","2","465","70","1","-2","1","3","13","0","0","0","0","-2,0,-2,-1,-3,-3","3","0","2017-08-15 17:45:02","0","0","0","0"
"A2VRDE2FHCBMF8","dez_1b_fix_v2_pilot1","1306","74","2","468","74","2","-1","1","3","277","0","0","0","0","4,-3,2,-1,-2,-2","148","0","2017-08-15 17:45:04","0","0","0","0"
"A2VRDE2FHCBMF8","dez_1b_fix_v2_pilot1","305","74","2","249","70","1","1","1","3","278","0","0","0","0","0,-3,1,2,-1,-1","149","0","2017-08-15 17:45:09","0","0","0","0"
"A23GB80BDI6PPL","dez_1b_fix_v2_pilot1","1367","70","1","698","74","2","1","1","2","14","0","0","0","0","-1,1,-1,-1,1,1","4","0","2017-08-15 17:45:09","0","0","0","0"
"A2VRDE2FHCBMF8","dez_1b_fix_v2_pilot1","169","70","1","200","74","2","-2","1","2","276","0","0","0","0","0,-2,1,1,-1,-1","150","0","2017-08-15 17:45:14","0","0","0","0"
"A23GB80BDI6PPL","dez_1b_fix_v2_pilot1","521","70","1","534","74","2","1","1","2","15","0","0","0","0","-3,1,1,1,1,1","5","0","2017-08-15 17:45:15","0","0","0","0"
"A2VRDE2FHCBMF8","dez_1b_fix_v2_pilot1","254","70","1","284","70","1","-2","0","4","274","0","0","0","0","2,-1,-1,2,-2,-2","151","0","2017-08-15 17:45:19","0","0","0","0"
"A23GB80BDI6PPL","dez_1b_fix_v2_pilot1","522","70","1","519","74","2","0","1","2","15","0","0","0","0","-2,0,-1,4,2,2","6","0","2017-08-15 17:45:21","0","0","0","0"
"A2VRDE2FHCBMF8","dez_1b_fix_v2_pilot1","70","70","1","327","70","1","-2","0","4","272","0","0","0","0","4,-1,0,3,-2,-2","152","0","2017-08-15 17:45:24","0","0","0","0"
"A23GB80BDI6PPL","dez_1b_fix_v2_pilot1","1060","70","1","774","70","1","-4","1","2","11","0","0","0","0","-4,-1,0,3,2,2","7","0","2017-08-15 17:45:27","0","0","0","0"
"A2VRDE2FHCBMF8","dez_1b_fix_v2_pilot1","698","70","1","304","70","1","3","1","2","275","0","0","0","0","3,-1,2,5,-3,-3","153","0","2017-08-15 17:45:30","0","0","0","0"
"A23GB80BDI6PPL","dez_1b_fix_v2_pilot1","504","74","2","855","70","1","-2","1","3","9","0","0","0","0","-5,3,-2,3,1,1","8","0","2017-08-15 17:45:33","0","0","0","0"
"A2VRDE2FHCBMF8","dez_1b_fix_v2_pilot1","643","70","1","305","70","1","4","1","2","279","0","0","0","0","4,-1,2,3,-2,-2","154","0","2017-08-15 17:45:36","0","0","0","0"
"A23GB80BDI6PPL","dez_1b_fix_v2_pilot1","748","74","2","707","74","2","4","1","3","13","0","0","0","0","-3,1,-1,4,4,4","9","0","2017-08-15 17:45:39","0","0","0","0"
"A2VRDE2FHCBMF8","dez_1b_fix_v2_pilot1","436","70","1","645","70","1","4","1","2","283","0","0","0","0","4,-2,1,2,-2,-2","155","0","2017-08-15 17:45:41","0","0","0","0"
"A23GB80BDI6PPL","dez_1b_fix_v2_pilot1","693","74","2","683","70","1","-1","1","3","12","0","0","0","0","-4,-3,-1,3,3,3","10","0","2017-08-15 17:45:45","0","0","0","0"
"A2VRDE2FHCBMF8","dez_1b_fix_v2_pilot1","650","70","1","447","70","1","3","1","2","286","0","0","0","0","3,-2,4,-1,-4,-4","156","0","2017-08-15 17:45:47","0","0","0","0"
"A23GB80BDI6PPL","dez_1b_fix_v2_pilot1","457","70","1","546","74","2","3","0","4","15","0","0","0","0","-4,-1,-2,4,3,3","11","0","2017-08-15 17:45:51","0","0","0","0"
"A2VRDE2FHCBMF8","dez_1b_fix_v2_pilot1","263","70","1","296","70","1","5","1","2","291","0","0","0","0","5,-2,5,1,-4,-4","157","0","2017-08-15 17:45:53","0","0","0","0"
"A23GB80BDI6PPL","dez_1b_fix_v2_pilot1","479","74","2","714","70","1","4","0","4","19","0","0","0","0","-4,-1,-2,5,4,4","12","0","2017-08-15 17:45:57","0","0","0","0"
"A2VRDE2FHCBMF8","dez_1b_fix_v2_pilot1","310","70","1","327","70","1","4","1","2","295","0","0","0","0","4,-4,5,2,-4,-4","158","0","2017-08-15 17:45:58","0","0","0","0"
"A23GB80BDI6PPL","dez_1b_fix_v2_pilot1","486","70","1","600","74","2","-1","1","2","18","0","0","0","0","-4,-1,-4,3,3,3","13","0","2017-08-15 17:46:03","0","0","0","0"
"A2VRDE2FHCBMF8","dez_1b_fix_v2_pilot1","729","70","1","350","70","1","-3","0","4","292","0","0","0","0","4,-4,1,4,-3,-3","159","0","2017-08-15 17:46:04","0","0","0","0"
"A23GB80BDI6PPL","dez_1b_fix_v2_pilot1","567","74","2","749","74","2","3","1","3","21","0","0","0","0","-2,-4,-5,3,5,5","14","0","2017-08-15 17:46:09","0","0","0","0"
"A2VRDE2FHCBMF8","dez_1b_fix_v2_pilot1","389","70","1","286","70","1","-4","0","4","288","0","0","0","0","4,-3,-3,5,-4,-4","160","0","2017-08-15 17:46:09","0","0","0","0"
"A23GB80BDI6PPL","dez_1b_fix_v2_pilot1","567","70","1","673","70","1","-2","1","2","19","0","0","0","0","-2,-3,-4,4,5,5","15","0","2017-08-15 17:46:15","0","0","0","0"
"A2VRDE2FHCBMF8","dez_1b_fix_v2_pilot1","487","70","1","311","70","1","4","1","2","292","0","0","0","0","4,0,-2,5,1,1","161","0","2017-08-15 17:46:15","0","0","0","0"
"A2VRDE2FHCBMF8","dez_1b_fix_v2_pilot1","304","70","1","293","70","1","3","1","2","295","0","0","0","0","3,4,-3,3,2,2","162","0","2017-08-15 17:46:20","0","0","0","0"
"A23GB80BDI6PPL","dez_1b_fix_v2_pilot1","572","74","2","603","74","2","3","0","4","22","0","0","0","0","-1,-3,-1,4,3,3","16","0","2017-08-15 17:46:20","0","0","0","0"
"A2VRDE2FHCBMF8","dez_1b_fix_v2_pilot1","319","70","1","523","74","2","1","0","4","296","0","0","0","0","4,5,-4,2,1,1","163","0","2017-08-15 17:46:25","0","0","0","0"
"A23GB80BDI6PPL","dez_1b_fix_v2_pilot1","628","74","2","485","74","2","4","0","4","26","0","0","0","0","-1,-2,-3,4,4,4","17","0","2017-08-15 17:46:26","0","0","0","0"
"A2VRDE2FHCBMF8","dez_1b_fix_v2_pilot1","320","70","1","350","70","1","-2","0","4","294","0","0","0","0","4,3,-5,2,-2,-2","164","0","2017-08-15 17:46:31","0","0","0","0"
"A23GB80BDI6PPL","dez_1b_fix_v2_pilot1","579","74","2","439","74","2","4","1","3","30","0","0","0","0","1,-3,-2,4,5,5","18","0","2017-08-15 17:46:32","0","0","0","0"
"A2VRDE2FHCBMF8","dez_1b_fix_v2_pilot1","694","70","1","365","74","2","3","1","2","297","0","0","0","0","2,3,-5,2,-2,-2","165","0","2017-08-15 17:46:37","0","0","0","0"
"A23GB80BDI6PPL","dez_1b_fix_v2_pilot1","907","74","2","524","70","1","4","0","4","34","0","0","0","0","2,-3,0,3,4,4","19","0","2017-08-15 17:46:38","0","0","0","0"
"A2VRDE2FHCBMF8","dez_1b_fix_v2_pilot1","308","70","1","549","74","2","2","1","2","299","0","0","0","0","5,2,-2,4,-4,-4","166","0","2017-08-15 17:46:42","0","0","0","0"
"A23GB80BDI6PPL","dez_1b_fix_v2_pilot1","443","74","2","512","70","1","5","0","4","39","0","0","0","0","1,-2,-1,2,5,5","20","0","2017-08-15 17:46:44","0","0","0","0"
"A2VRDE2FHCBMF8","dez_1b_fix_v2_pilot1","294","74","2","407","70","1","-1","1","3","298","0","0","0","0","4,4,-1,3,-5,-5","167","0","2017-08-15 17:46:48","0","0","0","0"
"A23GB80BDI6PPL","dez_1b_fix_v2_pilot1","473","74","2","508","70","1","-2","1","3","37","0","0","0","0","3,-3,-2,1,3,3","21","0","2017-08-15 17:46:49","0","0","0","0"
"A2VRDE2FHCBMF8","dez_1b_fix_v2_pilot1","299","70","1","652","70","1","3","1","2","301","0","0","0","0","3,4,0,1,-3,-3","168","0","2017-08-15 17:46:53","0","0","0","0"
"A23GB80BDI6PPL","dez_1b_fix_v2_pilot1","467","74","2","539","74","2","0","1","3","37","0","0","0","0","5,-4,-2,0,3,3","22","0","2017-08-15 17:46:55","0","0","0","0"
"A2VRDE2FHCBMF8","dez_1b_fix_v2_pilot1","423","74","2","299","74","2","1","1","3","302","0","0","0","0","2,4,-1,1,-4,-4","169","0","2017-08-15 17:46:59","0","0","0","0"
"A23GB80BDI6PPL","dez_1b_fix_v2_pilot1","641","70","1","893","74","2","-2","1","2","35","0","0","0","0","3,-2,-1,0,-1,-1","23","0","2017-08-15 17:47:01","0","0","0","0"
"A2VRDE2FHCBMF8","dez_1b_fix_v2_pilot1","521","74","2","309","70","1","-2","1","3","300","0","0","0","0","-1,3,-2,1,1,1","170","0","2017-08-15 17:47:04","0","0","0","0"
"A23GB80BDI6PPL","dez_1b_fix_v2_pilot1","491","74","2","612","70","1","0","1","3","35","0","0","0","0","2,0,0,3,-2,-2","24","0","2017-08-15 17:47:07","0","0","0","0"
"A2VRDE2FHCBMF8","dez_1b_fix_v2_pilot1","369","70","1","753","70","1","-1","1","2","299","0","0","0","0","-1,4,-1,1,1,1","171","0","2017-08-15 17:47:10","0","0","0","0"
"A23GB80BDI6PPL","dez_1b_fix_v2_pilot1","458","70","1","722","74","2","-4","1","2","31","0","0","0","0","-2,-4,2,5,1,1","25","0","2017-08-15 17:47:13","0","0","0","0"
"A2VRDE2FHCBMF8","dez_1b_fix_v2_pilot1","272","70","1","500","74","2","5","1","2","304","0","0","0","0","-1,5,-3,2,-2,-2","172","0","2017-08-15 17:47:16","0","0","0","0"
"A23GB80BDI6PPL","dez_1b_fix_v2_pilot1","700","70","1","427","70","1","-2","1","2","29","0","0","0","0","-2,-3,2,4,3,3","26","0","2017-08-15 17:47:19","0","0","0","0"
"A2VRDE2FHCBMF8","dez_1b_fix_v2_pilot1","374","70","1","624","74","2","4","1","2","308","0","0","0","0","-2,4,-4,2,-1,-1","173","0","2017-08-15 17:47:21","0","0","0","0"
"A23GB80BDI6PPL","dez_1b_fix_v2_pilot1","584","74","2","598","74","2","4","1","3","33","0","0","0","0","-4,-5,2,4,5,5","27","0","2017-08-15 17:47:24","0","0","0","0"
"A2VRDE2FHCBMF8","dez_1b_fix_v2_pilot1","840","70","1","257","74","2","4","1","2","312","0","0","0","0","-1,4,-2,2,3,3","174","0","2017-08-15 17:47:27","0","0","0","0"
"A23GB80BDI6PPL","dez_1b_fix_v2_pilot1","605","74","2","515","74","2","3","1","3","36","0","0","0","0","-2,-4,1,3,3,3","28","0","2017-08-15 17:47:30","0","0","0","0"
"A23GB80BDI6PPL","dez_1b_fix_v2_pilot1","790","74","2","377","74","2","2","1","3","38","0","0","0","0","-3,-1,2,2,4,4","29","0","2017-08-15 17:47:36","0","0","0","0"
"A23GB80BDI6PPL","dez_1b_fix_v2_pilot1","456","74","2","331","74","2","4","1","3","42","0","0","0","0","-5,-1,3,4,3,3","30","0","2017-08-15 17:47:41","0","0","0","0"
"A23GB80BDI6PPL","dez_1b_fix_v2_pilot1","362","74","2","372","74","2","1","1","3","43","0","0","0","0","-4,0,3,1,3,3","31","0","2017-08-15 17:47:47","0","0","0","0"
"A23GB80BDI6PPL","dez_1b_fix_v2_pilot1","368","70","1","554","74","2","3","0","4","46","0","0","0","0","-2,2,4,1,3,3","32","0","2017-08-15 17:47:52","0","0","0","0"
"A23GB80BDI6PPL","dez_1b_fix_v2_pilot1","444","70","1","661","70","1","-2","1","2","44","0","0","0","0","-2,2,5,-1,4,4","33","0","2017-08-15 17:47:58","0","0","0","0"
"A23GB80BDI6PPL","dez_1b_fix_v2_pilot1","766","70","1","424","74","2","3","1","2","47","0","0","0","0","-5,3,5,-1,3,3","34","0","2017-08-15 17:48:04","0","0","0","0"
"A23GB80BDI6PPL","dez_1b_fix_v2_pilot1","651","70","1","436","74","2","2","1","2","49","0","0","0","0","-4,2,3,-2,4,4","35","0","2017-08-15 17:48:10","0","0","0","0"
"A23GB80BDI6PPL","dez_1b_fix_v2_pilot1","395","70","1","552","74","2","2","1","2","51","0","0","0","0","-2,2,4,1,2,2","36","0","2017-08-15 17:48:15","0","0","0","0"
"A23GB80BDI6PPL","dez_1b_fix_v2_pilot1","369","70","1","445","74","2","2","1","2","53","0","0","0","0","-2,2,4,0,5,5","37","0","2017-08-15 17:48:21","0","0","0","0"
"A23GB80BDI6PPL","dez_1b_fix_v2_pilot1","464","70","1","472","74","2","-2","1","2","51","0","0","0","0","-4,-2,4,1,5,5","38","0","2017-08-15 17:48:27","0","0","0","0"
"A23GB80BDI6PPL","dez_1b_fix_v2_pilot1","393","70","1","595","74","2","5","0","4","56","0","0","0","0","-4,2,5,-2,5,5","39","0","2017-08-15 17:48:32","0","0","0","0"
"A23GB80BDI6PPL","dez_1b_fix_v2_pilot1","462","70","1","651","70","1","0","1","2","56","0","0","0","0","0,2,4,-3,5,5","40","0","2017-08-15 17:48:38","0","0","0","0"
"A23GB80BDI6PPL","dez_1b_fix_v2_pilot1","446","70","1","480","74","2","2","1","2","58","0","0","0","0","0,2,4,-2,3,3","41","0","2017-08-15 17:48:44","0","0","0","0"
"A23GB80BDI6PPL","dez_1b_fix_v2_pilot1","459","74","2","713","74","2","-3","1","3","55","0","0","0","0","-2,2,4,-3,5,5","42","0","2017-08-15 17:48:49","0","0","0","0"
"A23GB80BDI6PPL","dez_1b_fix_v2_pilot1","429","74","2","384","70","1","4","1","3","59","0","0","0","0","-2,0,4,-2,5,5","43","0","2017-08-15 17:48:55","0","0","0","0"
"A23GB80BDI6PPL","dez_1b_fix_v2_pilot1","581","74","2","424","70","1","5","1","3","64","0","0","0","0","-2,0,5,1,4,4","44","0","2017-08-15 17:49:01","0","0","0","0"
"A23GB80BDI6PPL","dez_1b_fix_v2_pilot1","565","74","2","572","70","1","5","1","3","69","0","0","0","0","-4,-1,5,0,5,5","45","0","2017-08-15 17:49:06","0","0","0","0"
"A23GB80BDI6PPL","dez_1b_fix_v2_pilot1","420","74","2","681","70","1","4","1","3","73","0","0","0","0","-3,-1,4,-2,3,3","46","0","2017-08-15 17:49:12","0","0","0","0"
"A23GB80BDI6PPL","dez_1b_fix_v2_pilot1","571","74","2","523","70","1","4","1","3","77","0","0","0","0","0,-2,4,-2,2,2","47","0","2017-08-15 17:49:18","0","0","0","0"
"A23GB80BDI6PPL","dez_1b_fix_v2_pilot1","768","74","2","419","70","1","5","1","3","82","0","0","0","0","0,-5,5,-5,4,4","48","0","2017-08-15 17:49:24","0","0","0","0"
"A23GB80BDI6PPL","dez_1b_fix_v2_pilot1","494","74","2","396","70","1","5","1","3","87","0","0","0","0","0,-5,5,-4,5,5","49","0","2017-08-15 17:49:29","0","0","0","0"
"A23GB80BDI6PPL","dez_1b_fix_v2_pilot1","448","74","2","408","70","1","5","1","3","92","0","0","0","0","0,-3,5,-3,4,4","50","0","2017-08-15 17:49:35","0","0","0","0"
"A23GB80BDI6PPL","dez_1b_fix_v2_pilot1","448","74","2","597","70","1","5","1","3","97","0","0","0","0","-1,-4,5,-1,5,5","51","0","2017-08-15 17:49:41","0","0","0","0"
"A23GB80BDI6PPL","dez_1b_fix_v2_pilot1","771","74","2","637","74","2","3","0","4","100","0","0","0","0","-3,-4,5,1,3,3","52","0","2017-08-15 17:49:47","0","0","0","0"
"A23GB80BDI6PPL","dez_1b_fix_v2_pilot1","487","74","2","754","70","1","4","1","3","104","0","0","0","0","-4,-4,4,2,-1,-1","53","0","2017-08-15 17:49:53","0","0","0","0"
"A23GB80BDI6PPL","dez_1b_fix_v2_pilot1","454","74","2","825","70","1","4","1","3","108","0","0","0","0","-3,-4,4,0,1,1","54","0","2017-08-15 17:49:59","0","0","0","0"
"A23GB80BDI6PPL","dez_1b_fix_v2_pilot1","539","74","2","498","70","1","5","1","3","113","0","0","0","0","-4,-2,5,0,2,2","55","0","2017-08-15 17:50:04","0","0","0","0"
"A23GB80BDI6PPL","dez_1b_fix_v2_pilot1","465","74","2","378","70","1","5","1","3","118","0","0","0","0","-2,-2,5,0,2,2","56","0","2017-08-15 17:50:10","0","0","0","0"
"A23GB80BDI6PPL","dez_1b_fix_v2_pilot1","440","74","2","305","70","1","5","1","3","123","0","0","0","0","-1,0,5,1,4,4","57","0","2017-08-15 17:50:15","0","0","0","0"
"A23GB80BDI6PPL","dez_1b_fix_v2_pilot1","385","74","2","345","70","1","5","1","3","128","0","0","0","0","-3,-3,5,0,3,3","58","0","2017-08-15 17:50:21","0","0","0","0"
"A23GB80BDI6PPL","dez_1b_fix_v2_pilot1","348","74","2","325","70","1","4","1","3","132","0","0","0","0","-2,-2,4,0,5,5","59","0","2017-08-15 17:50:26","0","0","0","0"
"A23GB80BDI6PPL","dez_1b_fix_v2_pilot1","415","74","2","347","70","1","4","0","4","136","0","0","0","0","-2,0,5,1,4,4","60","0","2017-08-15 17:50:31","0","0","0","0"
"A23GB80BDI6PPL","dez_1b_fix_v2_pilot1","452","70","1","553","74","2","-1","1","2","135","0","0","0","0","-4,-1,4,-1,2,2","61","0","2017-08-15 17:50:37","0","0","0","0"
"A23GB80BDI6PPL","dez_1b_fix_v2_pilot1","536","74","2","770","70","1","5","1","3","140","0","0","0","0","-3,-1,5,-1,1,1","62","0","2017-08-15 17:50:43","0","0","0","0"
"A23GB80BDI6PPL","dez_1b_fix_v2_pilot1","604","74","2","551","70","1","3","0","4","143","0","0","0","0","-5,-1,2,-1,3,3","63","0","2017-08-15 17:50:49","0","0","0","0"
"A23GB80BDI6PPL","dez_1b_fix_v2_pilot1","471","74","2","447","70","1","5","1","3","148","0","0","0","0","-5,1,5,-3,1,1","64","0","2017-08-15 17:50:55","0","0","0","0"
"A23GB80BDI6PPL","dez_1b_fix_v2_pilot1","438","74","2","363","70","1","5","1","3","153","0","0","0","0","-5,1,5,-1,3,3","65","0","2017-08-15 17:51:00","0","0","0","0"
"A23GB80BDI6PPL","dez_1b_fix_v2_pilot1","402","74","2","319","70","1","1","1","3","154","0","0","0","0","-4,1,1,-1,3,3","66","0","2017-08-15 17:51:05","0","0","0","0"
"A23GB80BDI6PPL","dez_1b_fix_v2_pilot1","526","74","2","561","70","1","5","0","4","159","0","0","0","0","-4,0,0,1,5,5","67","0","2017-08-15 17:51:11","0","0","0","0"
"A23GB80BDI6PPL","dez_1b_fix_v2_pilot1","477","74","2","466","70","1","-3","1","3","156","0","0","0","0","-5,-1,-3,1,4,4","68","0","2017-08-15 17:51:17","0","0","0","0"
"A23GB80BDI6PPL","dez_1b_fix_v2_pilot1","505","70","1","577","74","2","2","0","4","158","0","0","0","0","-3,-1,0,-1,2,2","69","0","2017-08-15 17:51:23","0","0","0","0"
"A23GB80BDI6PPL","dez_1b_fix_v2_pilot1","397","74","2","393","70","1","0","1","3","158","0","0","0","0","-3,0,0,0,2,2","70","0","2017-08-15 17:51:28","0","0","0","0"
"A23GB80BDI6PPL","dez_1b_fix_v2_pilot1","358","70","1","448","74","2","-4","0","4","154","0","0","0","0","-3,-1,1,4,-4,-4","71","0","2017-08-15 17:51:33","0","0","0","0"
"A23GB80BDI6PPL","dez_1b_fix_v2_pilot1","384","74","2","404","70","1","-1","1","3","153","0","0","0","0","-5,0,-1,4,-5,-5","72","0","2017-08-15 17:51:39","0","0","0","0"
"A23GB80BDI6PPL","dez_1b_fix_v2_pilot1","370","74","2","483","74","2","4","1","3","157","0","0","0","0","-5,-1,-1,4,-3,-3","73","0","2017-08-15 17:51:44","0","0","0","0"
"A23GB80BDI6PPL","dez_1b_fix_v2_pilot1","411","74","2","376","74","2","4","1","3","161","0","0","0","0","-4,0,0,4,-2,-2","74","0","2017-08-15 17:51:50","0","0","0","0"
"A23GB80BDI6PPL","dez_1b_fix_v2_pilot1","346","74","2","588","74","2","-1","0","4","160","0","0","0","0","-5,-3,0,3,-1,-1","75","0","2017-08-15 17:51:56","0","0","0","0"
"A23GB80BDI6PPL","dez_1b_fix_v2_pilot1","384","74","2","607","70","1","-3","1","3","157","0","0","0","0","-1,-3,-3,2,-1,-1","76","0","2017-08-15 17:52:01","0","0","0","0"
"A23GB80BDI6PPL","dez_1b_fix_v2_pilot1","410","74","2","557","74","2","1","1","3","158","0","0","0","0","1,-4,0,1,-2,-2","77","0","2017-08-15 17:52:07","0","0","0","0"
"A23GB80BDI6PPL","dez_1b_fix_v2_pilot1","499","74","2","383","70","1","-1","1","3","157","0","0","0","0","0,-2,-1,0,-3,-3","78","0","2017-08-15 17:52:12","0","0","0","0"
"A23GB80BDI6PPL","dez_1b_fix_v2_pilot1","364","74","2","566","70","1","-4","0","4","153","0","0","0","0","1,-2,-1,0,-4,-4","79","0","2017-08-15 17:52:18","0","0","0","0"
"A23GB80BDI6PPL","dez_1b_fix_v2_pilot1","407","74","2","457","74","2","1","1","3","154","0","0","0","0","2,-1,-1,1,-4,-4","80","0","2017-08-15 17:52:24","0","0","0","0"
"A23GB80BDI6PPL","dez_1b_fix_v2_pilot1","623","74","2","500","74","2","-1","1","3","153","0","0","0","0","4,-5,-3,-1,-4,-4","81","0","2017-08-15 17:52:29","0","0","0","0"
"A23GB80BDI6PPL","dez_1b_fix_v2_pilot1","418","74","2","448","74","2","-1","1","3","152","0","0","0","0","3,-5,-1,-1,-3,-3","82","0","2017-08-15 17:52:35","0","0","0","0"
"A23GB80BDI6PPL","dez_1b_fix_v2_pilot1","480","74","2","447","70","1","-1","1","3","151","0","0","0","0","1,-3,-1,-2,-4,-4","83","0","2017-08-15 17:52:40","0","0","0","0"
"A23GB80BDI6PPL","dez_1b_fix_v2_pilot1","437","70","1","529","74","2","-4","1","2","147","0","0","0","0","1,-4,-3,-2,-1,-1","84","0","2017-08-15 17:52:46","0","0","0","0"
"A23GB80BDI6PPL","dez_1b_fix_v2_pilot1","402","70","1","393","70","1","0","1","2","147","0","0","0","0","0,-4,-3,-3,-1,-1","85","0","2017-08-15 17:52:52","0","0","0","0"
"A23GB80BDI6PPL","dez_1b_fix_v2_pilot1","468","70","1","519","74","2","-3","0","4","144","0","0","0","0","1,-5,0,-5,-3,-3","86","0","2017-08-15 17:52:57","0","0","0","0"
"A23GB80BDI6PPL","dez_1b_fix_v2_pilot1","349","74","2","547","74","2","-3","0","4","141","0","0","0","0","5,-4,-1,-2,-3,-3","87","0","2017-08-15 17:53:03","0","0","0","0"
"A23GB80BDI6PPL","dez_1b_fix_v2_pilot1","342","70","1","315","70","1","2","1","2","143","0","0","0","0","2,-4,-2,-3,-1,-1","88","0","2017-08-15 17:53:08","0","0","0","0"
"A23GB80BDI6PPL","dez_1b_fix_v2_pilot1","629","70","1","421","70","1","2","1","2","145","0","0","0","0","2,-4,-2,-4,-2,-2","89","0","2017-08-15 17:53:14","0","0","0","0"
"A23GB80BDI6PPL","dez_1b_fix_v2_pilot1","377","70","1","480","74","2","-3","1","2","142","0","0","0","0","1,-3,-4,-3,4,4","90","0","2017-08-15 17:53:19","0","0","0","0"
"A23GB80BDI6PPL","dez_1b_fix_v2_pilot1","409","70","1","371","70","1","1","1","2","143","0","0","0","0","1,-1,-3,-5,4,4","91","0","2017-08-15 17:53:25","0","0","0","0"
"A23GB80BDI6PPL","dez_1b_fix_v2_pilot1","366","70","1","592","70","1","4","0","4","147","0","0","0","0","2,-1,-3,-4,4,4","92","0","2017-08-15 17:53:30","0","0","0","0"
"A23GB80BDI6PPL","dez_1b_fix_v2_pilot1","479","70","1","381","70","1","1","1","2","148","0","0","0","0","1,-3,-1,-3,5,5","93","0","2017-08-15 17:53:36","0","0","0","0"
"A23GB80BDI6PPL","dez_1b_fix_v2_pilot1","471","74","2","319","74","2","-4","1","3","144","0","0","0","0","3,-2,1,-4,4,4","94","0","2017-08-15 17:53:41","0","0","0","0"
"A23GB80BDI6PPL","dez_1b_fix_v2_pilot1","469","74","2","309","70","1","2","1","3","146","0","0","0","0","4,-3,2,-5,3,3","95","0","2017-08-15 17:53:47","0","0","0","0"
"A23GB80BDI6PPL","dez_1b_fix_v2_pilot1","390","70","1","538","70","1","2","0","4","148","0","0","0","0","1,-2,2,-4,2,2","96","0","2017-08-15 17:53:52","0","0","0","0"
"A23GB80BDI6PPL","dez_1b_fix_v2_pilot1","442","70","1","524","74","2","-1","0","4","147","0","0","0","0","1,-3,4,-4,-1,-1","97","0","2017-08-15 17:53:58","0","0","0","0"
"A23GB80BDI6PPL","dez_1b_fix_v2_pilot1","384","74","2","717","74","2","-3","1","3","144","0","0","0","0","1,-3,4,-3,-1,-1","98","0","2017-08-15 17:54:04","0","0","0","0"
"A23GB80BDI6PPL","dez_1b_fix_v2_pilot1","466","74","2","356","70","1","4","1","3","148","0","0","0","0","2,-3,4,-5,-4,-4","99","0","2017-08-15 17:54:09","0","0","0","0"
"A23GB80BDI6PPL","dez_1b_fix_v2_pilot1","1015","74","2","1191","70","1","4","1","3","152","0","0","0","0","2,-3,4,-3,-5,-5","100","0","2017-08-15 17:54:16","0","0","0","0"
"A23GB80BDI6PPL","dez_1b_fix_v2_pilot1","440","74","2","372","70","1","4","1","3","156","0","0","0","0","4,-2,4,-2,-3,-3","101","0","2017-08-15 17:54:22","0","0","0","0"
"A23GB80BDI6PPL","dez_1b_fix_v2_pilot1","435","74","2","784","70","1","4","1","3","160","0","0","0","0","5,-1,4,-3,-3,-3","102","0","2017-08-15 17:54:28","0","0","0","0"
"A23GB80BDI6PPL","dez_1b_fix_v2_pilot1","449","74","2","348","70","1","-2","0","4","158","0","0","0","0","3,-4,2,-3,-2,-2","103","0","2017-08-15 17:54:33","0","0","0","0"
"A23GB80BDI6PPL","dez_1b_fix_v2_pilot1","492","70","1","564","74","2","-2","1","2","156","0","0","0","0","3,-2,2,-3,-1,-1","104","0","2017-08-15 17:54:39","0","0","0","0"
"A23GB80BDI6PPL","dez_1b_fix_v2_pilot1","530","70","1","412","70","1","1","1","2","157","0","0","0","0","1,-2,4,-1,-3,-3","105","0","2017-08-15 17:54:44","0","0","0","0"
"A23GB80BDI6PPL","dez_1b_fix_v2_pilot1","462","74","2","420","70","1","3","1","3","160","0","0","0","0","-1,-2,3,-1,-3,-3","106","0","2017-08-15 17:54:50","0","0","0","0"
"A23GB80BDI6PPL","dez_1b_fix_v2_pilot1","447","74","2","450","70","1","-2","0","4","158","0","0","0","0","-1,-4,4,0,-2,-2","107","0","2017-08-15 17:54:56","0","0","0","0"
"A23GB80BDI6PPL","dez_1b_fix_v2_pilot1","476","70","1","576","74","2","-5","1","2","153","0","0","0","0","0,-5,3,-1,1,1","108","0","2017-08-15 17:55:01","0","0","0","0"
"A23GB80BDI6PPL","dez_1b_fix_v2_pilot1","396","70","1","549","70","1","2","0","4","155","0","0","0","0","2,-4,2,-2,2,2","109","0","2017-08-15 17:55:07","0","0","0","0"
"A23GB80BDI6PPL","dez_1b_fix_v2_pilot1","527","70","1","396","70","1","3","1","2","158","0","0","0","0","3,-2,2,0,2,2","110","0","2017-08-15 17:55:13","0","0","0","0"
"A23GB80BDI6PPL","dez_1b_fix_v2_pilot1","456","70","1","349","70","1","4","1","2","162","0","0","0","0","4,-2,3,0,4,4","111","0","2017-08-15 17:55:18","0","0","0","0"
"A23GB80BDI6PPL","dez_1b_fix_v2_pilot1","383","70","1","401","70","1","4","1","2","166","0","0","0","0","4,1,2,-1,5,5","112","0","2017-08-15 17:55:23","0","0","0","0"
"A23GB80BDI6PPL","dez_1b_fix_v2_pilot1","462","70","1","497","70","1","4","1","2","170","0","0","0","0","4,0,-1,2,3,3","113","0","2017-08-15 17:55:29","0","0","0","0"
"A23GB80BDI6PPL","dez_1b_fix_v2_pilot1","577","70","1","451","70","1","1","1","2","171","0","0","0","0","1,-3,-4,3,-2,-2","114","0","2017-08-15 17:55:35","0","0","0","0"
"A23GB80BDI6PPL","dez_1b_fix_v2_pilot1","422","70","1","306","70","1","2","1","2","173","0","0","0","0","2,-2,-4,5,-2,-2","115","0","2017-08-15 17:55:40","0","0","0","0"
"A23GB80BDI6PPL","dez_1b_fix_v2_pilot1","421","70","1","387","70","1","3","1","2","176","0","0","0","0","3,-2,-5,3,-3,-3","116","0","2017-08-15 17:55:46","0","0","0","0"
"A23GB80BDI6PPL","dez_1b_fix_v2_pilot1","382","70","1","330","70","1","3","1","2","179","0","0","0","0","3,-1,-4,3,-4,-4","117","0","2017-08-15 17:55:51","0","0","0","0"
"A23GB80BDI6PPL","dez_1b_fix_v2_pilot1","367","70","1","610","70","1","3","1","2","182","0","0","0","0","3,2,-3,5,-4,-4","118","0","2017-08-15 17:55:57","0","0","0","0"
"A23GB80BDI6PPL","dez_1b_fix_v2_pilot1","589","70","1","517","70","1","-5","0","4","177","0","0","0","0","2,1,-3,3,-5,-5","119","0","2017-08-15 17:56:03","0","0","0","0"
"A23GB80BDI6PPL","dez_1b_fix_v2_pilot1","827","70","1","433","70","1","4","1","2","181","0","0","0","0","4,2,-1,2,-5,-5","120","0","2017-08-15 17:56:08","0","0","0","0"
"A23GB80BDI6PPL","dez_1b_fix_v2_pilot1","547","70","1","387","70","1","4","1","2","185","0","0","0","0","4,0,-1,3,-4,-4","121","0","2017-08-15 17:56:14","0","0","0","0"
"A23GB80BDI6PPL","dez_1b_fix_v2_pilot1","346","70","1","364","70","1","2","1","2","187","0","0","0","0","2,0,0,4,-4,-4","122","0","2017-08-15 17:56:19","0","0","0","0"
"A23GB80BDI6PPL","dez_1b_fix_v2_pilot1","452","70","1","400","70","1","3","1","2","190","0","0","0","0","3,-1,0,4,-2,-2","123","0","2017-08-15 17:56:25","0","0","0","0"
"A23GB80BDI6PPL","dez_1b_fix_v2_pilot1","349","70","1","282","70","1","2","1","2","192","0","0","0","0","2,-1,-1,4,1,1","124","0","2017-08-15 17:56:30","0","0","0","0"
"A23GB80BDI6PPL","dez_1b_fix_v2_pilot1","545","74","2","609","70","1","0","1","3","192","0","0","0","0","3,-2,0,5,-3,-3","125","0","2017-08-15 17:56:36","0","0","0","0"
"A23GB80BDI6PPL","dez_1b_fix_v2_pilot1","363","74","2","459","74","2","4","1","3","196","0","0","0","0","4,-2,0,4,-2,-2","126","0","2017-08-15 17:56:42","0","0","0","0"
"A23GB80BDI6PPL","dez_1b_fix_v2_pilot1","454","74","2","603","74","2","2","1","3","198","0","0","0","0","3,-4,2,2,-1,-1","127","0","2017-08-15 17:56:47","0","0","0","0"
"A23GB80BDI6PPL","dez_1b_fix_v2_pilot1","663","74","2","536","70","1","3","1","3","201","0","0","0","0","3,-2,3,4,-2,-2","128","0","2017-08-15 17:56:53","0","0","0","0"
"A1MVMCWGWM4FM9","dez_1b_fix_v2_pilot1","1020","70","1","1245","70","1","4","0","4","4","1","0","0","0","-2,-5,-3,-4,4,4","0","0","2017-08-15 17:56:54","0","0","0","0"
"A23GB80BDI6PPL","dez_1b_fix_v2_pilot1","392","74","2","624","74","2","-2","0","4","199","0","0","0","0","2,-3,3,4,-2,-2","129","0","2017-08-15 17:56:59","0","0","0","0"
"A1MVMCWGWM4FM9","dez_1b_fix_v2_pilot1","834","70","1","1157","70","1","-5","1","2","-1","1","0","0","0","-5,-4,-5,-4,4,4","1","0","2017-08-15 17:57:01","0","0","0","0"
"A23GB80BDI6PPL","dez_1b_fix_v2_pilot1","495","70","1","689","74","2","-4","0","4","195","0","0","0","0","2,0,4,4,-4,-4","130","0","2017-08-15 17:57:05","0","0","0","0"
"A1MVMCWGWM4FM9","dez_1b_fix_v2_pilot1","904","70","1","651","74","2","-3","1","2","-4","1","0","0","0","-4,-3,-4,-4,5,5","2","0","2017-08-15 17:57:08","0","0","0","0"
"A23GB80BDI6PPL","dez_1b_fix_v2_pilot1","385","74","2","507","70","1","4","1","3","199","0","0","0","0","1,-1,4,3,-5,-5","131","0","2017-08-15 17:57:10","0","0","0","0"
"A1MVMCWGWM4FM9","dez_1b_fix_v2_pilot1","593","74","2","961","70","1","-4","1","3","-8","1","0","0","0","-3,-2,-4,-3,5,5","3","0","2017-08-15 17:57:15","0","0","0","0"
"A23GB80BDI6PPL","dez_1b_fix_v2_pilot1","386","74","2","321","70","1","-5","0","4","194","0","0","0","0","-2,-2,4,1,-5,-5","132","0","2017-08-15 17:57:16","0","0","0","0"
"A23GB80BDI6PPL","dez_1b_fix_v2_pilot1","464","74","2","402","70","1","3","1","3","197","0","0","0","0","-2,-3,3,1,-4,-4","133","0","2017-08-15 17:57:21","0","0","0","0"
"A1MVMCWGWM4FM9","dez_1b_fix_v2_pilot1","591","74","2","426","74","2","-4","1","3","-12","1","0","0","0","-4,-2,-4,-4,4,4","4","0","2017-08-15 17:57:22","0","0","0","0"
"A23GB80BDI6PPL","dez_1b_fix_v2_pilot1","505","74","2","294","70","1","1","1","3","198","0","0","0","0","-2,-2,1,1,-3,-3","134","0","2017-08-15 17:57:27","0","0","0","0"
"A1MVMCWGWM4FM9","dez_1b_fix_v2_pilot1","270","70","1","735","70","1","-1","1","2","-13","1","0","0","0","-1,-3,-4,-5,4,4","5","0","2017-08-15 17:57:28","0","0","0","0"
"A23GB80BDI6PPL","dez_1b_fix_v2_pilot1","394","74","2","398","70","1","0","1","3","198","0","0","0","0","-4,0,0,2,-3,-3","135","0","2017-08-15 17:57:32","0","0","0","0"
"A23GB80BDI6PPL","dez_1b_fix_v2_pilot1","353","74","2","351","70","1","1","1","3","199","0","0","0","0","-5,0,1,4,-3,-3","136","0","2017-08-15 17:57:38","0","0","0","0"
"A23GB80BDI6PPL","dez_1b_fix_v2_pilot1","539","74","2","338","70","1","3","1","3","202","0","0","0","0","-5,2,3,5,-3,-3","137","0","2017-08-15 17:57:43","0","0","0","0"
"A23GB80BDI6PPL","dez_1b_fix_v2_pilot1","370","74","2","278","70","1","5","1","3","207","0","0","0","0","-4,0,5,5,-2,-2","138","0","2017-08-15 17:57:48","0","0","0","0"
"A23GB80BDI6PPL","dez_1b_fix_v2_pilot1","372","74","2","282","70","1","2","1","3","209","0","0","0","0","-5,-2,2,5,-3,-3","139","0","2017-08-15 17:57:54","0","0","0","0"
"A23GB80BDI6PPL","dez_1b_fix_v2_pilot1","372","74","2","323","70","1","3","1","3","212","0","0","0","0","-4,-2,3,5,-4,-4","140","0","2017-08-15 17:57:59","0","0","0","0"
"A23GB80BDI6PPL","dez_1b_fix_v2_pilot1","416","74","2","286","70","1","-5","0","4","207","0","0","0","0","-2,-2,1,2,-5,-5","141","0","2017-08-15 17:58:04","0","0","0","0"
"A23GB80BDI6PPL","dez_1b_fix_v2_pilot1","420","74","2","435","74","2","0","1","3","207","0","0","0","0","0,-2,2,0,-3,-3","142","0","2017-08-15 17:58:10","0","0","0","0"
"A23GB80BDI6PPL","dez_1b_fix_v2_pilot1","324","74","2","285","70","1","3","1","3","210","0","0","0","0","2,-5,3,-1,-1,-1","143","0","2017-08-15 17:58:15","0","0","0","0"
"A23GB80BDI6PPL","dez_1b_fix_v2_pilot1","356","74","2","378","70","1","5","1","3","215","0","0","0","0","1,-4,5,-3,-3,-3","144","0","2017-08-15 17:58:21","0","0","0","0"
"A23GB80BDI6PPL","dez_1b_fix_v2_pilot1","424","74","2","309","70","1","4","1","3","219","0","0","0","0","-1,-2,4,-3,-4,-4","145","0","2017-08-15 17:58:26","0","0","0","0"
"A23GB80BDI6PPL","dez_1b_fix_v2_pilot1","365","74","2","304","70","1","4","1","3","223","0","0","0","0","-2,-2,4,-3,-3,-3","146","0","2017-08-15 17:58:31","0","0","0","0"
"A23GB80BDI6PPL","dez_1b_fix_v2_pilot1","339","74","2","299","70","1","-4","0","4","219","0","0","0","0","-2,-4,3,1,-4,-4","147","0","2017-08-15 17:58:37","0","0","0","0"
"A23GB80BDI6PPL","dez_1b_fix_v2_pilot1","372","70","1","607","74","2","-4","1","2","215","0","0","0","0","-1,-4,5,0,-2,-2","148","0","2017-08-15 17:58:42","0","0","0","0"
"A23GB80BDI6PPL","dez_1b_fix_v2_pilot1","422","70","1","366","70","1","-1","1","2","214","0","0","0","0","-1,-3,4,1,-5,-5","149","0","2017-08-15 17:58:48","0","0","0","0"
"A23GB80BDI6PPL","dez_1b_fix_v2_pilot1","435","74","2","394","74","2","3","1","3","217","0","0","0","0","-4,-5,4,3,-3,-3","150","0","2017-08-15 17:58:53","0","0","0","0"
"A23GB80BDI6PPL","dez_1b_fix_v2_pilot1","533","74","2","344","70","1","3","1","3","220","0","0","0","0","-2,-5,3,4,-1,-1","151","0","2017-08-15 17:58:59","0","0","0","0"
"A23GB80BDI6PPL","dez_1b_fix_v2_pilot1","499","74","2","338","70","1","1","1","3","221","0","0","0","0","-1,-3,1,2,-3,-3","152","0","2017-08-15 17:59:04","0","0","0","0"
"A23GB80BDI6PPL","dez_1b_fix_v2_pilot1","337","74","2","302","74","2","2","1","3","223","0","0","0","0","0,-5,2,2,-2,-2","153","0","2017-08-15 17:59:10","0","0","0","0"
"A23GB80BDI6PPL","dez_1b_fix_v2_pilot1","411","74","2","331","70","1","2","1","3","225","0","0","0","0","-1,-4,2,1,1,1","154","0","2017-08-15 17:59:15","0","0","0","0"
"A23GB80BDI6PPL","dez_1b_fix_v2_pilot1","345","74","2","333","74","2","-2","1","3","223","0","0","0","0","0,-4,3,-2,5,5","155","0","2017-08-15 17:59:20","0","0","0","0"
"A23GB80BDI6PPL","dez_1b_fix_v2_pilot1","444","74","2","274","70","1","2","1","3","225","0","0","0","0","1,-4,2,0,2,2","156","0","2017-08-15 17:59:26","0","0","0","0"
"A23GB80BDI6PPL","dez_1b_fix_v2_pilot1","364","74","2","286","70","1","3","1","3","228","0","0","0","0","2,-5,3,2,3,3","157","0","2017-08-15 17:59:31","0","0","0","0"
"A23GB80BDI6PPL","dez_1b_fix_v2_pilot1","404","74","2","379","70","1","4","1","3","232","0","0","0","0","3,-4,4,3,4,4","158","0","2017-08-15 17:59:37","0","0","0","0"
"A23GB80BDI6PPL","dez_1b_fix_v2_pilot1","435","74","2","305","70","1","1","0","4","233","0","0","0","0","5,-3,4,4,1,1","159","0","2017-08-15 17:59:42","0","0","0","0"
"A23GB80BDI6PPL","dez_1b_fix_v2_pilot1","305","74","2","286","70","1","3","1","3","236","0","0","0","0","1,-2,3,3,-3,-3","160","0","2017-08-15 17:59:47","0","0","0","0"
"A23GB80BDI6PPL","dez_1b_fix_v2_pilot1","367","74","2","364","74","2","5","1","3","241","0","0","0","0","2,-3,4,5,-1,-1","161","0","2017-08-15 17:59:53","0","0","0","0"
"A23GB80BDI6PPL","dez_1b_fix_v2_pilot1","455","74","2","315","74","2","3","1","3","244","0","0","0","0","0,-4,1,3,-1,-1","162","0","2017-08-15 17:59:58","0","0","0","0"
"A23GB80BDI6PPL","dez_1b_fix_v2_pilot1","403","74","2","331","70","1","2","1","3","246","0","0","0","0","1,-4,2,3,-1,-1","163","0","2017-08-15 18:00:04","0","0","0","0"
"A23GB80BDI6PPL","dez_1b_fix_v2_pilot1","351","74","2","337","74","2","2","1","3","248","0","0","0","0","1,-3,0,2,-2,-2","164","0","2017-08-15 18:00:09","0","0","0","0"
"A23GB80BDI6PPL","dez_1b_fix_v2_pilot1","514","74","2","419","70","1","2","1","3","250","0","0","0","0","3,-3,2,-2,-2,-2","165","0","2017-08-15 18:00:15","0","0","0","0"
"A23GB80BDI6PPL","dez_1b_fix_v2_pilot1","297","74","2","496","74","2","-2","1","3","248","0","0","0","0","3,-3,3,-2,-2,-2","166","0","2017-08-15 18:00:20","0","0","0","0"
"A23GB80BDI6PPL","dez_1b_fix_v2_pilot1","565","74","2","459","70","1","3","1","3","251","0","0","0","0","4,-5,3,-5,-4,-4","167","0","2017-08-15 18:00:26","0","0","0","0"
"A23GB80BDI6PPL","dez_1b_fix_v2_pilot1","335","74","2","287","70","1","3","1","3","254","0","0","0","0","5,-5,3,-5,-4,-4","168","0","2017-08-15 18:00:31","0","0","0","0"
"A23GB80BDI6PPL","dez_1b_fix_v2_pilot1","394","70","1","466","74","2","-4","0","4","250","0","0","0","0","3,-3,4,-4,-4,-4","169","0","2017-08-15 18:00:37","0","0","0","0"
"A23GB80BDI6PPL","dez_1b_fix_v2_pilot1","368","74","2","362","70","1","3","1","3","253","0","0","0","0","0,-4,3,-2,-5,-5","170","0","2017-08-15 18:00:42","0","0","0","0"
"A23GB80BDI6PPL","dez_1b_fix_v2_pilot1","284","74","2","356","70","1","4","1","3","257","0","0","0","0","1,-5,4,-1,-5,-5","171","0","2017-08-15 18:00:47","0","0","0","0"
"A23GB80BDI6PPL","dez_1b_fix_v2_pilot1","340","74","2","329","70","1","4","1","3","261","0","0","0","0","-1,-2,4,-3,-3,-3","172","0","2017-08-15 18:00:53","0","0","0","0"
"A23GB80BDI6PPL","dez_1b_fix_v2_pilot1","307","74","2","331","70","1","4","1","3","265","0","0","0","0","0,-1,4,-2,-2,-2","173","0","2017-08-15 18:00:58","0","0","0","0"
"A23GB80BDI6PPL","dez_1b_fix_v2_pilot1","410","74","2","261","70","1","4","1","3","269","0","0","0","0","-2,-3,4,-1,-1,-1","174","0","2017-08-15 18:01:03","0","0","0","0"
"A1Z0O5MC9DAE8C","dez_1b_fix_v2_pilot1","373","70","1","641","70","1","-4","0","4","-4","1","0","0","0","3,0,-3,-2,-4,-4","0","0","2017-08-15 19:21:25","0","0","0","0"
"A1Z0O5MC9DAE8C","dez_1b_fix_v2_pilot1","350","70","1","705","74","2","0","1","2","-4","1","0","0","0","-2,0,2,1,-2,-2","1","0","2017-08-15 19:21:32","0","0","0","0"
"A1Z0O5MC9DAE8C","dez_1b_fix_v2_pilot1","223","70","1","257","70","1","0","0","4","-4","1","0","0","0","2,1,1,3,0,0","2","0","2017-08-15 19:21:37","0","0","0","0"
"A1Z0O5MC9DAE8C","dez_1b_fix_v2_pilot1","200","70","1","259","70","1","1","1","2","-3","1","0","0","0","1,0,0,0,-1,-1","3","0","2017-08-15 19:21:43","0","0","0","0"
"A1Z0O5MC9DAE8C","dez_1b_fix_v2_pilot1","549","74","2","337","74","2","1","1","3","-2","1","0","0","0","2,1,-1,1,2,2","4","0","2017-08-15 19:21:50","0","0","0","0"
"A1Z0O5MC9DAE8C","dez_1b_fix_v2_pilot1","279","74","2","215","70","1","2","0","4","0","1","0","0","0","2,1,1,2,2,2","5","0","2017-08-15 19:21:56","0","0","0","0"
"A1Z0O5MC9DAE8C","dez_1b_fix_v2_pilot1","362","74","2","220","70","1","3","0","4","3","1","0","0","0","3,5,0,3,3,3","6","0","2017-08-15 19:22:02","0","0","0","0"
"A1Z0O5MC9DAE8C","dez_1b_fix_v2_pilot1","259","74","2","192","70","1","2","0","4","5","1","0","0","0","4,3,1,5,2,2","7","0","2017-08-15 19:22:08","0","0","0","0"
"A1Z0O5MC9DAE8C","dez_1b_fix_v2_pilot1","401","74","2","179","70","1","-1","1","3","4","1","0","0","0","3,3,-1,5,1,1","8","0","2017-08-15 19:22:14","0","0","0","0"
"A1Z0O5MC9DAE8C","dez_1b_fix_v2_pilot1","416","70","1","239","70","1","1","1","2","5","1","0","0","0","1,1,-1,4,2,2","9","0","2017-08-15 19:22:20","0","0","0","0"
"A1Z0O5MC9DAE8C","dez_1b_fix_v2_pilot1","481","70","1","705","70","1","-1","1","2","4","1","0","0","0","-1,4,2,4,1,1","10","0","2017-08-15 19:22:27","0","0","0","0"
"A1Z0O5MC9DAE8C","dez_1b_fix_v2_pilot1","721","70","1","684","70","1","-1","0","4","3","1","0","0","0","1,2,1,3,-1,-1","11","0","2017-08-15 19:22:34","0","0","0","0"
"A1Z0O5MC9DAE8C","dez_1b_fix_v2_pilot1","676","70","1","584","70","1","-3","0","4","0","1","0","0","0","3,0,3,3,-3,-3","12","0","2017-08-15 19:22:41","0","0","0","0"
"A1Z0O5MC9DAE8C","dez_1b_fix_v2_pilot1","292","70","1","1040","70","1","3","1","2","3","1","0","0","0","3,0,4,2,-4,-4","13","0","2017-08-15 19:22:47","0","0","0","0"
"A1Z0O5MC9DAE8C","dez_1b_fix_v2_pilot1","394","70","1","200","70","1","1","1","2","4","1","0","0","0","1,2,3,-1,-4,-4","14","0","2017-08-15 19:22:54","0","0","0","0"
"A1Z0O5MC9DAE8C","dez_1b_fix_v2_pilot1","30","70","1","261","74","2","4","1","2","8","1","0","0","0","-2,4,2,-2,-5,-5","15","0","2017-08-15 19:22:59","0","0","0","0"
"A1Z0O5MC9DAE8C","dez_1b_fix_v2_pilot1","138","70","1","276","74","2","2","1","2","10","1","0","0","0","-1,2,4,-2,-3,-3","16","0","2017-08-15 19:23:05","0","0","0","0"
"A1Z0O5MC9DAE8C","dez_1b_fix_v2_pilot1","37","74","2","509","70","1","3","1","3","13","1","0","0","0","-2,3,3,-3,-4,-4","17","0","2017-08-15 19:23:11","0","0","0","0"
"A1Z0O5MC9DAE8C","dez_1b_fix_v2_pilot1","290","74","2","399","70","1","5","1","3","18","1","0","0","0","-2,4,5,-3,-3,-3","18","0","2017-08-15 19:23:17","0","0","0","0"
"A1Z0O5MC9DAE8C","dez_1b_fix_v2_pilot1","489","74","2","164","70","1","5","1","3","23","1","0","0","0","-4,4,5,-1,-1,-1","19","0","2017-08-15 19:23:24","0","0","0","0"
"A1Z0O5MC9DAE8C","dez_1b_fix_v2_pilot1","282","74","2","102","70","1","-2","0","4","21","1","0","0","0","-4,4,4,1,-2,-2","20","0","2017-08-15 19:23:30","0","0","0","0"
"A1Z0O5MC9DAE8C","dez_1b_fix_v2_pilot1","389","74","2","92","70","1","4","1","3","25","1","0","0","0","-4,3,4,2,-4,-4","21","0","2017-08-15 19:23:36","0","0","0","0"
"A1Z0O5MC9DAE8C","dez_1b_fix_v2_pilot1","335","74","2","249","74","2","-4","0","4","21","1","0","0","0","-4,4,4,3,-4,-4","22","0","2017-08-15 19:23:42","0","0","0","0"
"A1Z0O5MC9DAE8C","dez_1b_fix_v2_pilot1","1481","74","2","619","74","2","3","1","3","24","1","0","0","0","0,5,3,3,-4,-4","23","0","2017-08-15 19:23:49","0","0","0","0"
"A1Z0O5MC9DAE8C","dez_1b_fix_v2_pilot1","404","74","2","735","74","2","-3","0","4","21","1","0","0","0","-1,4,3,3,-3,-3","24","0","2017-08-15 19:23:56","0","0","0","0"
"A1Z0O5MC9DAE8C","dez_1b_fix_v2_pilot1","242","74","2","100","70","1","3","1","3","24","1","0","0","0","1,2,3,-2,-4,-4","25","0","2017-08-15 19:24:02","0","0","0","0"
"A1Z0O5MC9DAE8C","dez_1b_fix_v2_pilot1","520","74","2","427","70","1","3","1","3","27","1","0","0","0","5,3,3,-1,-5,-5","26","0","2017-08-15 19:24:08","0","0","0","0"
"A1Z0O5MC9DAE8C","dez_1b_fix_v2_pilot1","366","74","2","327","70","1","4","1","3","31","1","0","0","0","4,5,4,0,-3,-3","27","0","2017-08-15 19:24:14","0","0","0","0"
"A1Z0O5MC9DAE8C","dez_1b_fix_v2_pilot1","50","74","2","18","70","1","3","1","3","34","1","0","0","0","2,3,3,3,-3,-3","28","0","2017-08-15 19:24:20","0","0","0","0"
"A1Z0O5MC9DAE8C","dez_1b_fix_v2_pilot1","365","74","2","14","70","1","2","1","3","36","1","0","0","0","4,3,2,4,-4,-4","29","0","2017-08-15 19:24:26","0","0","0","0"
"A1Z0O5MC9DAE8C","dez_1b_fix_v2_pilot1","207","70","1","587","70","1","4","1","2","40","1","0","0","0","4,4,3,4,-3,-3","30","0","2017-08-15 19:24:32","0","0","0","0"
"A1Z0O5MC9DAE8C","dez_1b_fix_v2_pilot1","2281","70","1","18","70","1","2","1","2","42","1","0","0","0","2,1,2,1,-4,-4","31","0","2017-08-15 19:24:40","0","0","0","0"
"A1Z0O5MC9DAE8C","dez_1b_fix_v2_pilot1","1993","70","1","1029","70","1","0","0","4","42","1","0","0","0","4,3,1,3,0,0","32","0","2017-08-15 19:24:49","0","0","0","0"
"A1Z0O5MC9DAE8C","dez_1b_fix_v2_pilot1","38","70","1","444","74","2","3","1","2","45","1","0","0","0","1,3,-1,1,1,1","33","0","2017-08-15 19:24:55","0","0","0","0"
"A1Z0O5MC9DAE8C","dez_1b_fix_v2_pilot1","317","74","2","22","74","2","3","1","3","48","1","0","0","0","1,3,-2,3,-2,-2","34","0","2017-08-15 19:25:00","0","0","0","0"
"A1Z0O5MC9DAE8C","dez_1b_fix_v2_pilot1","291","70","1","10","74","2","3","1","2","51","1","0","0","0","2,3,-5,3,-4,-4","35","0","2017-08-15 19:25:06","0","0","0","0"
"A1Z0O5MC9DAE8C","dez_1b_fix_v2_pilot1","341","70","1","5","70","1","-3","0","4","48","1","0","0","0","3,4,-3,4,-3,-3","36","0","2017-08-15 19:25:12","0","0","0","0"
"A1Z0O5MC9DAE8C","dez_1b_fix_v2_pilot1","323","70","1","35","70","1","-2","0","4","46","1","0","0","0","4,4,-3,4,-2,-2","37","0","2017-08-15 19:25:18","0","0","0","0"
"A1Z0O5MC9DAE8C","dez_1b_fix_v2_pilot1","252","70","1","3501","70","1","0","0","4","46","1","0","0","0","5,3,-2,1,0,0","38","0","2017-08-15 19:25:27","0","0","0","0"
"A1Z0O5MC9DAE8C","dez_1b_fix_v2_pilot1","382","70","1","1088","70","1","3","1","2","49","1","0","0","0","3,4,-3,-1,0,0","39","0","2017-08-15 19:25:34","0","0","0","0"
"A1Z0O5MC9DAE8C","dez_1b_fix_v2_pilot1","239","70","1","481","70","1","0","1","2","20","0","0","0","0","0,-1,-2,3,-4,-4","0","0","2017-08-15 19:26:13","0","0","0","0"
"A1Z0O5MC9DAE8C","dez_1b_fix_v2_pilot1","515","70","1","175","74","2","2","1","2","22","0","0","0","0","2,2,-1,2,-3,-3","1","0","2017-08-15 19:26:18","0","0","0","0"
"A1Z0O5MC9DAE8C","dez_1b_fix_v2_pilot1","270","74","2","84","70","1","-1","1","3","21","0","0","0","0","5,1,-1,4,-1,-1","2","0","2017-08-15 19:26:23","0","0","0","0"
"A1Z0O5MC9DAE8C","dez_1b_fix_v2_pilot1","154","74","2","311","74","2","4","1","3","25","0","0","0","0","3,-2,-3,4,1,1","3","0","2017-08-15 19:26:28","0","0","0","0"
"A1Z0O5MC9DAE8C","dez_1b_fix_v2_pilot1","232","74","2","786","74","2","1","0","4","26","0","0","0","0","1,-2,-1,5,1,1","4","0","2017-08-15 19:26:34","0","0","0","0"
"A1Z0O5MC9DAE8C","dez_1b_fix_v2_pilot1","303","74","2","427","74","2","5","1","3","31","0","0","0","0","0,1,-4,5,2,2","5","0","2017-08-15 19:26:39","0","0","0","0"
"A1Z0O5MC9DAE8C","dez_1b_fix_v2_pilot1","35","74","2","278","74","2","4","1","3","35","0","0","0","0","-1,-1,0,4,3,3","6","0","2017-08-15 19:26:44","0","0","0","0"
"A1Z0O5MC9DAE8C","dez_1b_fix_v2_pilot1","24","74","2","218","74","2","2","1","3","37","0","0","0","0","-2,0,-3,2,3,3","7","0","2017-08-15 19:26:49","0","0","0","0"
"A1Z0O5MC9DAE8C","dez_1b_fix_v2_pilot1","452","74","2","101","74","2","2","1","3","39","0","0","0","0","-1,1,-4,2,4,4","8","0","2017-08-15 19:26:54","0","0","0","0"
"A1Z0O5MC9DAE8C","dez_1b_fix_v2_pilot1","180","74","2","111","74","2","3","1","3","42","0","0","0","0","-4,4,-4,3,2,2","9","0","2017-08-15 19:26:59","0","0","0","0"
"A1Z0O5MC9DAE8C","dez_1b_fix_v2_pilot1","47","74","2","47","74","2","5","1","3","47","0","0","0","0","-5,2,-2,5,4,4","10","0","2017-08-15 19:27:04","0","0","0","0"
"A1Z0O5MC9DAE8C","dez_1b_fix_v2_pilot1","273","74","2","689","74","2","3","0","4","50","0","0","0","0","-5,2,-3,4,3,3","11","0","2017-08-15 19:27:10","0","0","0","0"
"A1Z0O5MC9DAE8C","dez_1b_fix_v2_pilot1","419","74","2","428","74","2","2","1","3","52","0","0","0","0","-2,1,-2,2,4,4","12","0","2017-08-15 19:27:15","0","0","0","0"
"A1Z0O5MC9DAE8C","dez_1b_fix_v2_pilot1","43","74","2","313","74","2","3","1","3","55","0","0","0","0","-2,1,-3,3,4,4","13","0","2017-08-15 19:27:20","0","0","0","0"
"A1Z0O5MC9DAE8C","dez_1b_fix_v2_pilot1","304","74","2","163","74","2","1","1","3","56","0","0","0","0","-1,4,-2,1,2,2","14","0","2017-08-15 19:27:25","0","0","0","0"
"A1Z0O5MC9DAE8C","dez_1b_fix_v2_pilot1","137","74","2","116","74","2","1","1","3","57","0","0","0","0","0,5,-5,1,5,5","15","0","2017-08-15 19:27:30","0","0","0","0"
"A1Z0O5MC9DAE8C","dez_1b_fix_v2_pilot1","86","74","2","211","70","1","-3","1","3","54","0","0","0","0","-2,4,-3,2,2,2","16","0","2017-08-15 19:27:35","0","0","0","0"
"A1Z0O5MC9DAE8C","dez_1b_fix_v2_pilot1","65","74","2","217","74","2","3","1","3","57","0","0","0","0","-1,2,-3,3,2,2","17","0","2017-08-15 19:27:40","0","0","0","0"
"A1Z0O5MC9DAE8C","dez_1b_fix_v2_pilot1","336","74","2","111","74","2","4","1","3","61","0","0","0","0","2,3,-3,4,1,1","18","0","2017-08-15 19:27:45","0","0","0","0"
"A1Z0O5MC9DAE8C","dez_1b_fix_v2_pilot1","64","74","2","108","74","2","2","0","4","63","0","0","0","0","2,-2,1,4,2,2","19","0","2017-08-15 19:27:50","0","0","0","0"
"A1Z0O5MC9DAE8C","dez_1b_fix_v2_pilot1","52","74","2","169","74","2","2","1","3","65","0","0","0","0","5,-1,1,2,1,1","20","0","2017-08-15 19:27:55","0","0","0","0"
"A1Z0O5MC9DAE8C","dez_1b_fix_v2_pilot1","40","74","2","127","74","2","2","1","3","67","0","0","0","0","3,-1,3,2,-2,-2","21","0","2017-08-15 19:28:00","0","0","0","0"
"A1Z0O5MC9DAE8C","dez_1b_fix_v2_pilot1","260","74","2","69","74","2","-1","1","3","66","0","0","0","0","5,-1,1,-1,-1,-1","22","0","2017-08-15 19:28:05","0","0","0","0"
"A1Z0O5MC9DAE8C","dez_1b_fix_v2_pilot1","241","70","1","294","70","1","4","1","2","70","0","0","0","0","4,3,2,-2,-2,-2","23","0","2017-08-15 19:28:10","0","0","0","0"
"A1Z0O5MC9DAE8C","dez_1b_fix_v2_pilot1","223","70","1","210","70","1","4","1","2","74","0","0","0","0","4,1,4,-1,-3,-3","24","0","2017-08-15 19:28:15","0","0","0","0"
"A1Z0O5MC9DAE8C","dez_1b_fix_v2_pilot1","117","70","1","90","70","1","2","1","2","76","0","0","0","0","2,1,4,1,-1,-1","25","0","2017-08-15 19:28:20","0","0","0","0"
"A1Z0O5MC9DAE8C","dez_1b_fix_v2_pilot1","287","70","1","82","70","1","3","1","2","79","0","0","0","0","3,2,4,2,1,1","26","0","2017-08-15 19:28:25","0","0","0","0"
"A1Z0O5MC9DAE8C","dez_1b_fix_v2_pilot1","406","70","1","346","70","1","1","1","2","80","0","0","0","0","1,0,4,2,-2,-2","27","0","2017-08-15 19:28:30","0","0","0","0"
"A1Z0O5MC9DAE8C","dez_1b_fix_v2_pilot1","311","70","1","89","70","1","5","1","2","85","0","0","0","0","5,-3,2,3,2,2","28","0","2017-08-15 19:28:35","0","0","0","0"
"A1Z0O5MC9DAE8C","dez_1b_fix_v2_pilot1","202","70","1","1453","70","1","2","0","4","87","0","0","0","0","4,-4,3,2,2,2","29","0","2017-08-15 19:28:42","0","0","0","0"
"A1Z0O5MC9DAE8C","dez_1b_fix_v2_pilot1","15","70","1","90","70","1","5","1","2","92","0","0","0","0","5,-4,0,3,2,2","30","0","2017-08-15 19:28:46","0","0","0","0"
"A1Z0O5MC9DAE8C","dez_1b_fix_v2_pilot1","299","70","1","271","70","1","4","1","2","96","0","0","0","0","4,-4,-1,3,1,1","31","0","2017-08-15 19:28:52","0","0","0","0"
"A1Z0O5MC9DAE8C","dez_1b_fix_v2_pilot1","286","70","1","79","70","1","4","1","2","100","0","0","0","0","4,-3,-2,2,2,2","32","0","2017-08-15 19:28:57","0","0","0","0"
"A1Z0O5MC9DAE8C","dez_1b_fix_v2_pilot1","302","70","1","244","70","1","5","1","2","105","0","0","0","0","5,-4,-2,1,1,1","33","0","2017-08-15 19:29:02","0","0","0","0"
"A1Z0O5MC9DAE8C","dez_1b_fix_v2_pilot1","341","70","1","242","70","1","1","0","4","106","0","0","0","0","3,-2,-3,-1,1,1","34","0","2017-08-15 19:29:07","0","0","0","0"
"A1Z0O5MC9DAE8C","dez_1b_fix_v2_pilot1","224","70","1","266","70","1","4","1","2","110","0","0","0","0","4,-4,-4,-1,3,3","35","0","2017-08-15 19:29:12","0","0","0","0"
"A1Z0O5MC9DAE8C","dez_1b_fix_v2_pilot1","105","70","1","63","70","1","4","0","4","114","0","0","0","0","5,-3,-3,-2,4,4","36","0","2017-08-15 19:29:17","0","0","0","0"
"A1Z0O5MC9DAE8C","dez_1b_fix_v2_pilot1","272","70","1","124","70","1","3","1","2","117","0","0","0","0","3,-1,-2,0,1,1","37","0","2017-08-15 19:29:22","0","0","0","0"
"A1Z0O5MC9DAE8C","dez_1b_fix_v2_pilot1","227","70","1","127","70","1","1","1","2","118","0","0","0","0","1,0,-2,-2,1,1","38","0","2017-08-15 19:29:27","0","0","0","0"
"A1Z0O5MC9DAE8C","dez_1b_fix_v2_pilot1","247","70","1","425","74","2","1","1","2","119","0","0","0","0","2,1,-3,-4,4,4","39","0","2017-08-15 19:29:32","0","0","0","0"
"A1Z0O5MC9DAE8C","dez_1b_fix_v2_pilot1","338","70","1","111","70","1","2","0","4","121","0","0","0","0","2,3,0,-3,2,2","40","0","2017-08-15 19:29:38","0","0","0","0"
"A1Z0O5MC9DAE8C","dez_1b_fix_v2_pilot1","1","70","1","99","70","1","2","1","2","123","0","0","0","0","2,3,2,-2,4,4","41","0","2017-08-15 19:29:42","0","0","0","0"
"A1Z0O5MC9DAE8C","dez_1b_fix_v2_pilot1","277","74","2","333","74","2","-1","1","3","122","0","0","0","0","0,3,1,-1,4,4","42","0","2017-08-15 19:29:48","0","0","0","0"
"A1Z0O5MC9DAE8C","dez_1b_fix_v2_pilot1","295","74","2","664","74","2","3","0","4","125","0","0","0","0","0,4,1,1,3,3","43","0","2017-08-15 19:29:53","0","0","0","0"
"A1Z0O5MC9DAE8C","dez_1b_fix_v2_pilot1","237","74","2","301","70","1","4","0","4","129","0","0","0","0","-1,4,2,1,4,4","44","0","2017-08-15 19:29:58","0","0","0","0"
"A1Z0O5MC9DAE8C","dez_1b_fix_v2_pilot1","453","74","2","219","70","1","0","1","3","129","0","0","0","0","-2,3,0,2,2,2","45","0","2017-08-15 19:30:04","0","0","0","0"
"A1Z0O5MC9DAE8C","dez_1b_fix_v2_pilot1","15","70","1","227","70","1","-1","1","2","128","0","0","0","0","-1,5,-2,1,3,3","46","0","2017-08-15 19:30:09","0","0","0","0"
"A1Z0O5MC9DAE8C","dez_1b_fix_v2_pilot1","392","70","1","311","74","2","2","1","2","130","0","0","0","0","-1,2,-1,1,3,3","47","0","2017-08-15 19:30:14","0","0","0","0"
"A1Z0O5MC9DAE8C","dez_1b_fix_v2_pilot1","533","70","1","396","74","2","-1","1","2","129","0","0","0","0","-1,-1,-4,2,1,1","48","0","2017-08-15 19:30:20","0","0","0","0"
"A1Z0O5MC9DAE8C","dez_1b_fix_v2_pilot1","363","74","2","243","70","1","-3","1","3","126","0","0","0","0","2,-1,-3,1,-3,-3","49","0","2017-08-15 19:30:25","0","0","0","0"
"A1Z0O5MC9DAE8C","dez_1b_fix_v2_pilot1","246","74","2","161","74","2","3","1","3","129","0","0","0","0","5,-1,-3,3,1,1","50","0","2017-08-15 19:30:30","0","0","0","0"
"A1Z0O5MC9DAE8C","dez_1b_fix_v2_pilot1","94","74","2","262","74","2","0","1","3","129","0","0","0","0","4,-2,-3,0,1,1","51","0","2017-08-15 19:30:35","0","0","0","0"
"A1Z0O5MC9DAE8C","dez_1b_fix_v2_pilot1","43","74","2","156","74","2","5","1","3","134","0","0","0","0","2,-2,-3,5,2,2","52","0","2017-08-15 19:30:40","0","0","0","0"
"A1Z0O5MC9DAE8C","dez_1b_fix_v2_pilot1","54","74","2","218","74","2","3","1","3","137","0","0","0","0","2,-2,-3,3,2,2","53","0","2017-08-15 19:30:45","0","0","0","0"
"A1Z0O5MC9DAE8C","dez_1b_fix_v2_pilot1","38","74","2","441","74","2","5","1","3","142","0","0","0","0","3,-1,-5,5,-1,-1","54","0","2017-08-15 19:30:50","0","0","0","0"
"A1Z0O5MC9DAE8C","dez_1b_fix_v2_pilot1","1987","74","2","51","74","2","4","1","3","146","0","0","0","0","2,-2,-5,4,-1,-1","55","0","2017-08-15 19:30:57","0","0","0","0"
"A1Z0O5MC9DAE8C","dez_1b_fix_v2_pilot1","1463","74","2","79","74","2","5","1","3","151","0","0","0","0","5,-4,-5,5,-1,-1","56","0","2017-08-15 19:31:03","0","0","0","0"
"A1Z0O5MC9DAE8C","dez_1b_fix_v2_pilot1","525","74","2","89","74","2","4","1","3","155","0","0","0","0","2,-2,-5,4,1,1","57","0","2017-08-15 19:31:08","0","0","0","0"
"A1Z0O5MC9DAE8C","dez_1b_fix_v2_pilot1","526","74","2","103","74","2","3","1","3","158","0","0","0","0","1,-1,-4,3,-3,-3","58","0","2017-08-15 19:31:13","0","0","0","0"
"A1Z0O5MC9DAE8C","dez_1b_fix_v2_pilot1","208","74","2","215","74","2","4","1","3","162","0","0","0","0","-2,-4,0,4,-2,-2","59","0","2017-08-15 19:31:18","0","0","0","0"
"A1Z0O5MC9DAE8C","dez_1b_fix_v2_pilot1","220","74","2","175","74","2","1","1","3","163","0","0","0","0","-2,-5,2,1,4,4","60","0","2017-08-15 19:31:23","0","0","0","0"
"A1Z0O5MC9DAE8C","dez_1b_fix_v2_pilot1","158","74","2","175","74","2","2","1","3","165","0","0","0","0","-2,-4,0,2,4,4","61","0","2017-08-15 19:31:28","0","0","0","0"
"A1Z0O5MC9DAE8C","dez_1b_fix_v2_pilot1","9","74","2","1","74","2","0","1","3","165","0","0","0","0","-3,-4,2,0,3,3","62","0","2017-08-15 19:31:33","0","0","0","0"
"A1Z0O5MC9DAE8C","dez_1b_fix_v2_pilot1","551","70","1","226","74","2","3","0","4","168","0","0","0","0","-3,-1,0,-1,3,3","63","0","2017-08-15 19:31:39","0","0","0","0"
"A1Z0O5MC9DAE8C","dez_1b_fix_v2_pilot1","65","74","2","216","74","2","0","1","3","168","0","0","0","0","0,-1,3,0,2,2","64","0","2017-08-15 19:31:43","0","0","0","0"
"A1Z0O5MC9DAE8C","dez_1b_fix_v2_pilot1","178","70","1","218","70","1","-1","1","2","167","0","0","0","0","-1,-2,5,-2,2,2","65","0","2017-08-15 19:31:49","0","0","0","0"
"A1Z0O5MC9DAE8C","dez_1b_fix_v2_pilot1","1083","70","1","375","74","2","-1","1","2","166","0","0","0","0","-1,-1,2,0,-3,-3","66","0","2017-08-15 19:31:55","0","0","0","0"
"A1Z0O5MC9DAE8C","dez_1b_fix_v2_pilot1","144","74","2","363","74","2","-2","1","3","164","0","0","0","0","0,-1,2,-2,-4,-4","67","0","2017-08-15 19:32:00","0","0","0","0"
"A1Z0O5MC9DAE8C","dez_1b_fix_v2_pilot1","286","74","2","375","70","1","4","1","3","168","0","0","0","0","-2,-1,4,-2,-3,-3","68","0","2017-08-15 19:32:05","0","0","0","0"
"A1Z0O5MC9DAE8C","dez_1b_fix_v2_pilot1","318","74","2","463","70","1","3","1","3","171","0","0","0","0","2,2,3,-4,-2,-2","69","0","2017-08-15 19:32:11","0","0","0","0"
"A1Z0O5MC9DAE8C","dez_1b_fix_v2_pilot1","401","74","2","218","70","1","4","1","3","175","0","0","0","0","1,0,4,-2,-1,-1","70","0","2017-08-15 19:32:16","0","0","0","0"
"A1Z0O5MC9DAE8C","dez_1b_fix_v2_pilot1","175","74","2","414","70","1","3","1","3","178","0","0","0","0","1,1,3,1,-2,-2","71","0","2017-08-15 19:32:21","0","0","0","0"
"A1Z0O5MC9DAE8C","dez_1b_fix_v2_pilot1","589","74","2","115","70","1","3","1","3","181","0","0","0","0","1,5,3,5,-3,-3","72","0","2017-08-15 19:32:26","0","0","0","0"
"A1Z0O5MC9DAE8C","dez_1b_fix_v2_pilot1","384","74","2","130","70","1","1","1","3","182","0","0","0","0","3,3,1,5,-3,-3","73","0","2017-08-15 19:32:32","0","0","0","0"
"A1Z0O5MC9DAE8C","dez_1b_fix_v2_pilot1","461","74","2","165","70","1","2","1","3","184","0","0","0","0","5,1,2,2,-4,-4","74","0","2017-08-15 19:32:37","0","0","0","0"
"A1Z0O5MC9DAE8C","dez_1b_fix_v2_pilot1","501","74","2","178","70","1","3","1","3","187","0","0","0","0","5,1,3,-1,-4,-4","75","0","2017-08-15 19:32:42","0","0","0","0"
"A1Z0O5MC9DAE8C","dez_1b_fix_v2_pilot1","46","74","2","123","70","1","5","1","3","192","0","0","0","0","4,0,5,-1,-3,-3","76","0","2017-08-15 19:32:47","0","0","0","0"
"A1Z0O5MC9DAE8C","dez_1b_fix_v2_pilot1","354","74","2","367","70","1","4","1","3","196","0","0","0","0","5,2,4,-2,-1,-1","77","0","2017-08-15 19:32:52","0","0","0","0"
"A1Z0O5MC9DAE8C","dez_1b_fix_v2_pilot1","404","74","2","30","70","1","4","1","3","200","0","0","0","0","3,3,4,-2,-2,-2","78","0","2017-08-15 19:32:58","0","0","0","0"
"A1Z0O5MC9DAE8C","dez_1b_fix_v2_pilot1","3","74","2","208","70","1","2","1","3","202","0","0","0","0","4,3,2,-1,-2,-2","79","0","2017-08-15 19:33:02","0","0","0","0"
"A1Z0O5MC9DAE8C","dez_1b_fix_v2_pilot1","546","74","2","94","70","1","-3","0","4","199","0","0","0","0","2,4,5,-3,-3,-3","80","0","2017-08-15 19:33:08","0","0","0","0"
"A1Z0O5MC9DAE8C","dez_1b_fix_v2_pilot1","354","74","2","97","70","1","4","1","3","203","0","0","0","0","3,4,4,-4,-5,-5","81","0","2017-08-15 19:33:13","0","0","0","0"
"A1Z0O5MC9DAE8C","dez_1b_fix_v2_pilot1","452","74","2","14","70","1","4","1","3","207","0","0","0","0","5,1,4,-1,-4,-4","82","0","2017-08-15 19:33:18","0","0","0","0"
"A1Z0O5MC9DAE8C","dez_1b_fix_v2_pilot1","416","74","2","266","70","1","2","1","3","209","0","0","0","0","5,-1,2,0,-2,-2","83","0","2017-08-15 19:33:23","0","0","0","0"
"A1Z0O5MC9DAE8C","dez_1b_fix_v2_pilot1","433","74","2","234","70","1","2","1","3","211","0","0","0","0","1,0,2,1,2,2","84","0","2017-08-15 19:33:29","0","0","0","0"
"A1Z0O5MC9DAE8C","dez_1b_fix_v2_pilot1","410","74","2","44","70","1","1","1","3","212","0","0","0","0","-1,2,1,1,4,4","85","0","2017-08-15 19:33:34","0","0","0","0"
"A1Z0O5MC9DAE8C","dez_1b_fix_v2_pilot1","406","74","2","202","74","2","0","1","3","212","0","0","0","0","-2,5,3,0,5,5","86","0","2017-08-15 19:33:39","0","0","0","0"
"A1Z0O5MC9DAE8C","dez_1b_fix_v2_pilot1","129","74","2","217","70","1","4","1","3","216","0","0","0","0","-1,4,4,0,3,3","87","0","2017-08-15 19:33:44","0","0","0","0"
"A1Z0O5MC9DAE8C","dez_1b_fix_v2_pilot1","223","74","2","90","70","1","4","1","3","220","0","0","0","0","0,2,4,-2,3,3","88","0","2017-08-15 19:33:49","0","0","0","0"
"A1Z0O5MC9DAE8C","dez_1b_fix_v2_pilot1","130","74","2","64","70","1","2","1","3","222","0","0","0","0","1,0,2,-2,-1,-1","89","0","2017-08-15 19:33:54","0","0","0","0"
"A1Z0O5MC9DAE8C","dez_1b_fix_v2_pilot1","362","74","2","37","70","1","5","1","3","227","0","0","0","0","3,5,5,1,-2,-2","90","0","2017-08-15 19:33:59","0","0","0","0"
"A1Z0O5MC9DAE8C","dez_1b_fix_v2_pilot1","62","74","2","87","70","1","-4","0","4","223","0","0","0","0","3,3,4,2,-4,-4","91","0","2017-08-15 19:34:04","0","0","0","0"
"A1Z0O5MC9DAE8C","dez_1b_fix_v2_pilot1","319","74","2","75","70","1","2","1","3","225","0","0","0","0","2,5,2,0,-1,-1","92","0","2017-08-15 19:34:09","0","0","0","0"
"A1Z0O5MC9DAE8C","dez_1b_fix_v2_pilot1","31","74","2","392","70","1","-2","0","4","223","0","0","0","0","4,4,1,0,-2,-2","93","0","2017-08-15 19:34:14","0","0","0","0"
"A1Z0O5MC9DAE8C","dez_1b_fix_v2_pilot1","250","74","2","71","70","1","3","1","3","226","0","0","0","0","4,3,3,0,-3,-3","94","0","2017-08-15 19:34:19","0","0","0","0"
"A1Z0O5MC9DAE8C","dez_1b_fix_v2_pilot1","354","74","2","82","70","1","3","1","3","229","0","0","0","0","0,1,3,1,-1,-1","95","0","2017-08-15 19:34:24","0","0","0","0"
"A1Z0O5MC9DAE8C","dez_1b_fix_v2_pilot1","687","74","2","134","70","1","4","1","3","233","0","0","0","0","3,0,4,-1,-3,-3","96","0","2017-08-15 19:34:29","0","0","0","0"
"A1Z0O5MC9DAE8C","dez_1b_fix_v2_pilot1","718","74","2","111","70","1","3","1","3","236","0","0","0","0","3,2,3,0,-4,-4","97","0","2017-08-15 19:34:35","0","0","0","0"
"A1Z0O5MC9DAE8C","dez_1b_fix_v2_pilot1","461","74","2","15","70","1","-4","0","4","232","0","0","0","0","1,2,5,-1,-4,-4","98","0","2017-08-15 19:34:40","0","0","0","0"
"A1Z0O5MC9DAE8C","dez_1b_fix_v2_pilot1","488","74","2","1158","74","2","-1","1","3","231","0","0","0","0","0,5,4,-1,-2,-2","99","0","2017-08-15 19:34:46","0","0","0","0"
"A1Z0O5MC9DAE8C","dez_1b_fix_v2_pilot1","184","70","1","138","70","1","-2","1","2","229","0","0","0","0","-2,3,4,-3,-2,-2","100","0","2017-08-15 19:34:51","0","0","0","0"
"A1Z0O5MC9DAE8C","dez_1b_fix_v2_pilot1","233","70","1","155","74","2","-4","0","4","225","0","0","0","0","0,2,5,0,-4,-4","101","0","2017-08-15 19:34:56","0","0","0","0"
"A1Z0O5MC9DAE8C","dez_1b_fix_v2_pilot1","3","74","2","56","74","2","-2","1","3","223","0","0","0","0","2,1,4,-2,-5,-5","102","0","2017-08-15 19:35:01","0","0","0","0"
"A1Z0O5MC9DAE8C","dez_1b_fix_v2_pilot1","414","74","2","95","70","1","1","1","3","224","0","0","0","0","2,3,1,-3,-4,-4","103","0","2017-08-15 19:35:06","0","0","0","0"
"A1Z0O5MC9DAE8C","dez_1b_fix_v2_pilot1","402","74","2","290","70","1","1","1","3","225","0","0","0","0","0,3,1,-4,-5,-5","104","0","2017-08-15 19:35:12","0","0","0","0"
"A1Z0O5MC9DAE8C","dez_1b_fix_v2_pilot1","24","74","2","219","70","1","-1","1","3","224","0","0","0","0","-1,4,-1,-4,-5,-5","105","0","2017-08-15 19:35:16","0","0","0","0"
"A1Z0O5MC9DAE8C","dez_1b_fix_v2_pilot1","211","74","2","453","70","1","-3","1","3","221","0","0","0","0","0,5,-3,-4,-4,-4","106","0","2017-08-15 19:35:22","0","0","0","0"
"A1Z0O5MC9DAE8C","dez_1b_fix_v2_pilot1","268","70","1","164","74","2","-5","0","4","216","0","0","0","0","-3,5,-3,-2,-5,-5","107","0","2017-08-15 19:35:27","0","0","0","0"
"A1Z0O5MC9DAE8C","dez_1b_fix_v2_pilot1","33","70","1","639","70","1","-3","1","2","213","0","0","0","2","-3,2,-4,-4,-4,-4","108","0","2017-08-15 19:35:39","0","0","0","0"
"A1Z0O5MC9DAE8C","dez_1b_fix_v2_pilot1","232","70","1","924","74","2","1","1","2","214","0","0","0","0","-3,1,-4,-1,-2,-2","109","0","2017-08-15 19:35:45","0","0","0","0"
"A1Z0O5MC9DAE8C","dez_1b_fix_v2_pilot1","340","70","1","305","74","2","3","1","2","217","0","0","0","0","-5,3,-4,-2,-2,-2","110","0","2017-08-15 19:35:50","0","0","0","0"
"A1Z0O5MC9DAE8C","dez_1b_fix_v2_pilot1","262","70","1","218","74","2","5","1","2","222","0","0","0","0","-1,5,-4,2,-2,-2","111","0","2017-08-15 19:35:55","0","0","0","0"
"A1Z0O5MC9DAE8C","dez_1b_fix_v2_pilot1","231","70","1","89","74","2","4","1","2","226","0","0","0","0","1,4,-2,1,-2,-2","112","0","2017-08-15 19:36:00","0","0","0","0"
"A1Z0O5MC9DAE8C","dez_1b_fix_v2_pilot1","324","70","1","89","74","2","4","1","2","230","0","0","0","0","-2,4,-3,-4,1,1","113","0","2017-08-15 19:36:05","0","0","0","0"
"A1Z0O5MC9DAE8C","dez_1b_fix_v2_pilot1","200","70","1","73","74","2","3","1","2","233","0","0","0","0","-3,3,-5,-2,-1,-1","114","0","2017-08-15 19:36:10","0","0","0","0"
"A1Z0O5MC9DAE8C","dez_1b_fix_v2_pilot1","626","70","1","24","74","2","2","1","2","235","0","0","0","0","-4,2,-5,-2,-3,-3","115","0","2017-08-15 19:36:15","0","0","0","0"
"A1Z0O5MC9DAE8C","dez_1b_fix_v2_pilot1","201","70","1","20","74","2","-4","0","4","231","0","0","0","0","-3,4,-5,-3,-4,-4","116","0","2017-08-15 19:36:20","0","0","0","0"
"A1Z0O5MC9DAE8C","dez_1b_fix_v2_pilot1","386","74","2","238","74","2","-4","0","4","227","0","0","0","0","-3,4,-4,-4,-4,-4","117","0","2017-08-15 19:36:25","0","0","0","0"
"A1Z0O5MC9DAE8C","dez_1b_fix_v2_pilot1","296","74","2","676","74","2","0","1","3","227","0","0","0","3","-5,3,-2,0,-3,-3","118","0","2017-08-15 19:36:40","0","0","0","0"
